Timestamp,Acc_X,Acc_Y,Acc_Z,PPG_Raw,HeartRate_Label
2025-05-18 12:55:17.184348,0.11711571324550724,-0.5852854415709012,0.7783222841775658,494.027431002148,71
2025-05-18 12:55:17.194359,0.14491756089054125,-0.591890348971379,0.8752351957804704,498.87556661338715,72
2025-05-18 12:55:17.204361,0.11435731342266735,-0.6340883237442299,0.7901783783115724,495.43114833287524,71
2025-05-18 12:55:17.214362,0.1238205533743722,-0.576912824515871,0.848793421436639,511.7995303145162,71
2025-05-18 12:55:17.224363,0.11090263932878527,-0.6162190583773859,0.8112752385356848,491.79035752004285,74
2025-05-18 12:55:17.234364,0.122298400634689,-0.6254531447255135,0.8354963037244428,500.94188075561124,71
2025-05-18 12:55:17.244366,0.15777509749252944,-0.5947816447373034,0.8504128780018764,519.6069239411058,70
2025-05-18 12:55:17.254368,0.17672744520477,-0.602930536450764,0.8658157833552013,526.8151095800665,72
2025-05-18 12:55:17.264370,0.13322338801740394,-0.6209165337682995,0.8553714642988373,569.1815718698613,73
2025-05-18 12:55:17.274371,0.1759815122573663,-0.639526436290715,0.8771019376164473,544.8537948102623,74
2025-05-18 12:55:17.284372,0.17851515504429477,-0.6332818443151496,0.8396879313261522,555.7053098931812,70
2025-05-18 12:55:17.294374,0.17834159389064388,-0.6167681060180764,0.9016374367208102,613.280048784951,71
2025-05-18 12:55:17.304375,0.21216765337529137,-0.6056793764999315,0.8664315246144602,600.1721442411499,71
2025-05-18 12:55:17.314376,0.181781147030583,-0.6416769688019212,0.9037465171043076,630.2120929562109,73
2025-05-18 12:55:17.324377,0.22695108103660702,-0.6279359650626287,0.8763428862279098,684.1339938769777,71
2025-05-18 12:55:17.334378,0.23160963054393255,-0.6379053725038076,0.8783594990374525,648.1343154384341,74
2025-05-18 12:55:17.344379,0.22112105792256012,-0.6331161202006026,0.915352120714549,691.2505484662863,73
2025-05-18 12:55:17.354380,0.266791532606121,-0.6456593651359,0.9135518713083847,641.1837060741449,72
2025-05-18 12:55:17.364382,0.21253527456465293,-0.62711499415663,0.9093468414793011,712.3054529557163,74
2025-05-18 12:55:17.374383,0.20296820688667358,-0.6248446830906765,0.8719119788168989,726.3022019093137,73
2025-05-18 12:55:17.384384,0.21990542712786515,-0.6953693460793215,0.8998835523871226,714.8703833166488,73
2025-05-18 12:55:17.394385,0.2813272906949752,-0.6732614411785288,0.9354637984623193,702.5287891124108,74
2025-05-18 12:55:17.404386,0.24676683933365712,-0.6775423900339211,0.9035083916745442,716.1613262358859,70
2025-05-18 12:55:17.414388,0.255656322733502,-0.6818168473976456,0.9118807956632833,709.7626350349577,70
2025-05-18 12:55:17.424389,0.29389570215380245,-0.6694431736031292,0.8649751523951855,683.7811427496501,72
2025-05-18 12:55:17.434390,0.2508512885301216,-0.6774593713017482,0.889722341977432,676.2764797059583,74
2025-05-18 12:55:17.444391,0.2900070577777227,-0.706198646079706,0.8951180877293298,695.519098985139,73
2025-05-18 12:55:17.454392,0.2708810006125592,-0.6946022815751587,0.8572977051475767,627.8798511294892,73
2025-05-18 12:55:17.464393,0.2694838759186935,-0.7163998277182102,0.8904097416181032,643.9497618809512,71
2025-05-18 12:55:17.474394,0.2619725333200801,-0.7282227749675196,0.9073248126856353,593.9318504048277,71
2025-05-18 12:55:17.484395,0.2778503071316627,-0.7197890804543587,0.881431931040356,596.1173595349607,73
2025-05-18 12:55:17.494397,0.3059838754481543,-0.7509643365887718,0.8690606321397054,593.9969975004597,71
2025-05-18 12:55:17.504398,0.2765418960158104,-0.7440956347547207,0.8317356478592604,532.5554320379741,73
2025-05-18 12:55:17.514399,0.29565347702456085,-0.7377586264335279,0.859554190202696,564.6604387569188,70
2025-05-18 12:55:17.524400,0.2974362386387959,-0.7778957768487853,0.8234981444399821,543.9691390331448,74
2025-05-18 12:55:17.534401,0.3189807615205952,-0.7754099390656857,0.83190624994546,513.9663040048682,72
2025-05-18 12:55:17.544402,0.29054382193111367,-0.7372751716563591,0.7963973147846822,500.38217069731047,71
2025-05-18 12:55:17.554404,0.30356564829309823,-0.7599472265624849,0.7930715892259886,514.6851283856389,70
2025-05-18 12:55:17.564405,0.29103788687291393,-0.7867134316625133,0.8020326549642549,493.4919588226899,74
2025-05-18 12:55:17.574406,0.2844946100864383,-0.7895667016039819,0.8109616487749717,514.3993737246526,73
2025-05-18 12:55:17.584407,0.2502547362220887,-0.8116650380874362,0.7800910904028594,492.7034621822732,73
2025-05-18 12:55:17.594408,0.28683221636704753,-0.7971287202995705,0.7884224282083506,489.1668273006783,70
2025-05-18 12:55:17.604409,0.2811322609102442,-0.8244952628953316,0.816584459034195,481.9212828797133,71
2025-05-18 12:55:17.614410,0.2844775763337913,-0.8196829433347913,0.8029677741576505,514.2766708475676,73
2025-05-18 12:55:17.624411,0.2840458067375283,-0.8128322666811545,0.7523381289949527,515.4663070586944,70
2025-05-18 12:55:17.634413,0.3081939170799715,-0.8636041454358223,0.757954915827453,504.83028128479157,73
2025-05-18 12:55:17.644414,0.27843597767918,-0.8371136023945001,0.7599151504092791,523.6475936529434,73
2025-05-18 12:55:17.654415,0.24341281086841324,-0.8682130778392911,0.7280032638036802,478.31958860565686,71
2025-05-18 12:55:17.664416,0.2779342910186843,-0.869573046590881,0.7377032260128829,477.002325634014,72
2025-05-18 12:55:17.674417,0.2797613464769239,-0.9119557542877176,0.6932464501896368,483.37232375299646,70
2025-05-18 12:55:17.684418,0.2663378771019742,-0.8631191453720682,0.7686249977406872,445.8814493648394,73
2025-05-18 12:55:17.694419,0.28336109370108226,-0.9073253227643773,0.7484265297944961,455.81852624592665,70
2025-05-18 12:55:17.704420,0.2887070288207064,-0.9062936324504198,0.7254536721136159,415.5643929175141,71
2025-05-18 12:55:17.714421,0.2680937483089504,-0.9392251347728228,0.7306500933099124,409.09519878116686,74
2025-05-18 12:55:17.724422,0.27067840089997747,-0.9635227777151327,0.7111530094972298,383.56418179077497,72
2025-05-18 12:55:17.734424,0.2566101489354746,-0.9672017625228755,0.7217702749573605,375.43223283885754,72
2025-05-18 12:55:17.744425,0.26228758124545554,-0.9722281503356638,0.7200636401109588,366.17153533890655,71
2025-05-18 12:55:17.754426,0.2259764608225538,-0.9705176614310944,0.7084130037213783,349.782306826502,74
2025-05-18 12:55:17.764427,0.22093748470327815,-0.951408061761371,0.6934189924337337,320.4114529297033,72
2025-05-18 12:55:17.774428,0.2592914444638065,-0.9699114898492479,0.7058341224107969,307.02095874562445,72
2025-05-18 12:55:17.784429,0.2201128743937156,-0.9912631224960079,0.7240254257053063,309.07454114621,70
2025-05-18 12:55:17.794430,0.1882978537733849,-1.0247682187926548,0.6767858661538885,272.66600260933495,74
2025-05-18 12:55:17.804431,0.2015213470078044,-1.0523820836475728,0.7040651080311162,276.16030340600685,74
2025-05-18 12:55:17.814432,0.21492481889376283,-1.0364515307399,0.660816957815935,300.43552742975874,70
2025-05-18 12:55:17.824434,0.19702416367023648,-1.0190813633015694,0.6883238037115853,305.42859654105416,71
2025-05-18 12:55:17.834435,0.18788684129412786,-1.0388494775233132,0.7046950084623186,282.5693723783312,70
2025-05-18 12:55:17.844436,0.18191078613539163,-1.0567412084089751,0.7010375321853837,313.6245511089771,70
2025-05-18 12:55:17.854437,0.18884734069861492,-1.0717521003965775,0.6783409925898047,312.63093551565873,74
2025-05-18 12:55:17.864438,0.1511170163150779,-1.0818688241579502,0.7430095443861452,334.656145416345,70
2025-05-18 12:55:17.874439,0.1567630439244267,-1.089887190771985,0.6847283058292267,353.95012746962055,72
2025-05-18 12:55:17.884440,0.12069472771705189,-1.110003158393157,0.732293856858633,373.0163819783074,74
2025-05-18 12:55:17.894442,0.1629556627462221,-1.0786891495401654,0.7223361762887857,397.8772100096729,74
2025-05-18 12:55:17.904443,0.11544693979200422,-1.0923454375851287,0.7622725013122579,421.67193264221993,72
2025-05-18 12:55:17.914444,0.11669512651853692,-1.0973283672336052,0.7465301690563159,440.923638649913,73
2025-05-18 12:55:17.924445,0.10508638849027414,-1.136749052411772,0.7224792445819537,456.76978254524187,73
2025-05-18 12:55:17.934446,0.0969491499759177,-1.1189841194684043,0.7756376578042063,484.4759324084325,73
2025-05-18 12:55:17.944447,0.09455530436671514,-1.1348066582203147,0.7757016727647043,470.28866670136284,73
2025-05-18 12:55:17.954449,0.09246911463054959,-1.1096762753363945,0.7545617302226673,447.24971501803014,73
2025-05-18 12:55:17.964450,0.0889947901273602,-1.1452932302642982,0.7729665605401118,484.1405498015724,73
2025-05-18 12:55:17.974451,0.09147388370506959,-1.1807190758221002,0.8083859325499149,505.488373535684,70
2025-05-18 12:55:17.984452,0.0801478832088497,-1.1510282879429872,0.7992638198338281,499.2929231559302,74
2025-05-18 12:55:17.994453,0.07091307303606195,-1.1692932683904753,0.8298919867474219,497.5905167872564,72
2025-05-18 12:55:18.004454,0.04035295650101616,-1.148470624474324,0.8116853442624166,496.0439799824224,74
2025-05-18 12:55:18.014455,0.04312635443297311,-1.1839067806182813,0.838246399736105,510.0374449858645,72
2025-05-18 12:55:18.024456,-0.006444574398541694,-1.1694138386374664,0.8234139533951521,486.00289912087806,73
2025-05-18 12:55:18.034458,0.005823138102752137,-1.143068904067347,0.8693661221439957,503.60113545178297,73
2025-05-18 12:55:18.044459,-0.008288679848478964,-1.1486125705547505,0.8381087015354117,506.9242822108238,72
2025-05-18 12:55:18.054460,-0.015467279781012356,-1.1674637687073819,0.8520743136806911,509.92458144744296,73
2025-05-18 12:55:18.064461,-0.014743829938615798,-1.168727862604478,0.8282157496668593,541.8634936943632,72
2025-05-18 12:55:18.074462,-0.013610155591499973,-1.1197530572448333,0.8631117540062326,539.2126551390728,74
2025-05-18 12:55:18.084463,-0.002118687702364515,-1.1710455680717027,0.9104325981472128,545.360132797888,74
2025-05-18 12:55:18.094464,-0.037200680115884587,-1.1998116312544207,0.8805038123573848,514.2388138192919,74
2025-05-18 12:55:18.104465,-0.05449564022700114,-1.184766806774607,0.8620871461673608,557.2509629443451,72
2025-05-18 12:55:18.114467,-0.0359053301614522,-1.1886811287090269,0.9137290680404255,539.055475814949,74
2025-05-18 12:55:18.124468,-0.038299830116484294,-1.1614656018312304,0.9213210693090162,552.752834099333,70
2025-05-18 12:55:18.134469,-0.06286772768365269,-1.225607788613687,0.8903771182346178,605.4392262081772,74
2025-05-18 12:55:18.144470,-0.05292380615819656,-1.171203351007435,0.9006803427035812,607.4261839105907,73
2025-05-18 12:55:18.154471,-0.0790235168792386,-1.2152431454556496,0.9027573593124957,660.4364639465504,71
2025-05-18 12:55:18.164472,-0.07230668512995797,-1.2036121688284174,0.8723731494149812,650.7212757776854,72
2025-05-18 12:55:18.174473,-0.04616238673854263,-1.2040370980969226,0.9108991528099675,665.0438821764692,71
2025-05-18 12:55:18.184474,-0.06978465493898678,-1.1845077507007407,0.9316017010111929,691.9190832995669,74
2025-05-18 12:55:18.194476,-0.0977378053181224,-1.1684700403155353,0.903468058586981,684.8283690827693,74
2025-05-18 12:55:18.204477,-0.06996815470886801,-1.2046975357717575,0.8915366155348747,708.0223873732011,70
2025-05-18 12:55:18.214478,-0.11451569532703088,-1.1539949282836401,0.8516662054755338,715.4436404767046,70
2025-05-18 12:55:18.224479,-0.059488362048272785,-1.2029644030260056,0.902996197884527,703.867675057177,73
2025-05-18 12:55:18.234480,-0.08209910044679936,-1.2071339324338368,0.893182371258208,735.5937961726981,70
2025-05-18 12:55:18.244481,-0.1118678658857263,-1.1857272159211323,0.8645715187651236,720.4694880857759,71
2025-05-18 12:55:18.254482,-0.12211270131450708,-1.1825811915765663,0.8682552012915579,694.5153881541421,73
2025-05-18 12:55:18.264483,-0.09005362578328824,-1.1900088002831755,0.8585322639257335,671.0084854432981,73
2025-05-18 12:55:18.274485,-0.08524464843364425,-1.184360206705087,0.8431780528496016,666.7938810876243,72
2025-05-18 12:55:18.284486,-0.09172704692245345,-1.2238953922169737,0.8701036812299269,630.5911835052877,70
2025-05-18 12:55:18.294487,-0.09274690502827258,-1.1652229535870438,0.8860907390384315,661.3101616189307,72
2025-05-18 12:55:18.304488,-0.09253290335805094,-1.1632708321517733,0.8730050484554267,615.8553733639578,71
2025-05-18 12:55:18.314489,-0.12875155520183448,-1.2079978033208711,0.8955201730785795,595.5056441297003,74
2025-05-18 12:55:18.324490,-0.07736884855036136,-1.1580395447834004,0.8482305027669261,588.405835498431,71
2025-05-18 12:55:18.334491,-0.10704607136168252,-1.1412198055020981,0.8423410212136415,549.8465739786259,71
2025-05-18 12:55:18.344493,-0.14585705682115713,-1.1623282613682504,0.8030316772688108,553.1513340009942,72
2025-05-18 12:55:18.354494,-0.08258417880877193,-1.163734810362504,0.8263687121830167,553.9508375070984,72
2025-05-18 12:55:18.364495,-0.058846470628012106,-1.1662092223908298,0.8072234757948468,530.8692963753805,73
2025-05-18 12:55:18.374496,-0.09274289534963667,-1.124456269668484,0.8321144108851322,516.1226586410171,73
2025-05-18 12:55:18.384497,-0.1041163271923343,-1.087723994678802,0.8051658287906903,530.0128225992063,72
2025-05-18 12:55:18.394498,-0.08204841248633672,-1.1133700882918398,0.807338525226153,522.0893713376678,71
2025-05-18 12:55:18.404499,-0.046842081982219806,-1.1416679534319156,0.8021557624981603,532.5638509650919,74
2025-05-18 12:55:18.414500,-0.0888348398343104,-1.0992374657250201,0.7968170476342523,496.2717048178627,74
2025-05-18 12:55:18.424501,-0.06764030232364548,-1.1097334047258893,0.7490154600410406,502.08207368698623,70
2025-05-18 12:55:18.434503,-0.07459785956017864,-1.098696285039224,0.7594878134396156,502.8100903802541,70
2025-05-18 12:55:18.444504,-0.08848905502405402,-1.116040990471915,0.7327265019877416,523.6140507173615,71
2025-05-18 12:55:18.454505,-0.08107638217491596,-1.0089859623319628,0.7240447801924056,501.5757448279897,74
2025-05-18 12:55:18.464506,-0.047097617210169335,-1.063539747444537,0.7132848918692891,500.20754699044784,73
2025-05-18 12:55:18.474507,-0.05553572071787656,-1.131466338138909,0.7762691557463877,488.4376545260822,72
2025-05-18 12:55:18.484509,-0.05725946462647483,-1.0708549499671591,0.7484706137486193,476.73425274401916,72
2025-05-18 12:55:18.494510,-0.03738681661866819,-1.1111168248531256,0.7529399393678129,484.84175788844254,70
2025-05-18 12:55:18.504511,-0.009681452809403569,-1.0910450616530176,0.7397890632642629,499.4407542392941,71
2025-05-18 12:55:18.514512,-0.025806718074276067,-1.072001800413836,0.6985397711133925,481.8046842792765,71
2025-05-18 12:55:18.524513,-0.006167034403965526,-1.0876663984445356,0.7228130230058045,476.57628667562733,70
2025-05-18 12:55:18.534514,-0.0011537738534509283,-1.0638059307878032,0.71863239476347,409.98314102037045,71
2025-05-18 12:55:18.544515,0.01394600901574174,-1.005544242205899,0.6973090449244312,422.68290964086935,72
2025-05-18 12:55:18.554516,-0.048947331051627165,-1.0215230106034294,0.7321213619282448,388.6927880996485,72
2025-05-18 12:55:18.564517,0.0014632204833999228,-1.0261026892945946,0.6866735660647836,380.3967483547128,74
2025-05-18 12:55:18.574518,0.030937059762928355,-1.0145938532774648,0.6962580430317318,365.3887654676555,72
2025-05-18 12:55:18.584519,0.04662741971651223,-0.9868562860779384,0.7252798218390032,367.91235736097957,70
2025-05-18 12:55:18.594521,0.022287402038324546,-0.9900037653757614,0.7156299625531121,333.9079799137743,74
2025-05-18 12:55:18.604522,0.005491099939255895,-0.9930711860769978,0.6943643279535326,317.56531620789826,73
2025-05-18 12:55:18.614523,0.061933128250656624,-0.9759047538162765,0.680502061938629,310.693126457742,70
2025-05-18 12:55:18.624524,0.0802764833731076,-0.9380713619630556,0.7218216083895862,317.0447710502764,72
2025-05-18 12:55:18.634525,0.05487119555784175,-0.961454477181583,0.6974919510905806,282.11408868051734,73
2025-05-18 12:55:18.644526,0.07532452001140785,-0.9584784922122351,0.7258504393907337,288.01246231227884,74
2025-05-18 12:55:18.654527,0.0679019269044184,-0.9426789145585406,0.7620212106756216,285.61032483268747,72
2025-05-18 12:55:18.664528,0.05073132343059139,-0.9323435333526257,0.744898951706627,298.7802116767823,71
2025-05-18 12:55:18.674529,0.11337686411644293,-0.9224890133934673,0.7050665915795209,274.44722377172434,73
2025-05-18 12:55:18.684530,0.11176072243153383,-0.92094203999349,0.7538058641258373,325.063488754739,72
2025-05-18 12:55:18.694531,0.10158413411786464,-0.9166992439184649,0.7655488160606865,351.439233121407,72
2025-05-18 12:55:18.704533,0.12408788917364873,-0.9374092097519257,0.7431915277612823,353.54556776600367,74
2025-05-18 12:55:18.714534,0.1359961194488678,-0.8513259032010916,0.738836323927855,380.2675028587761,70
2025-05-18 12:55:18.724535,0.12729914263360106,-0.8599888263019757,0.71871264377943,362.7733297379177,74
2025-05-18 12:55:18.734536,0.14376145331135462,-0.8761635112375178,0.7827160077921433,399.0237163564802,73
2025-05-18 12:55:18.744537,0.13692652114803988,-0.8593625176384635,0.7335332706338673,405.35495478938145,74
2025-05-18 12:55:18.754538,0.15467243369762387,-0.8259136654688011,0.7674411013920717,472.84582443984704,72
2025-05-18 12:55:18.764539,0.1795266289784719,-0.8366035452358421,0.7859036728537426,438.42693860207464,74
2025-05-18 12:55:18.774540,0.18189041261808148,-0.8065185878226895,0.8244467394091434,426.5689178582045,72
2025-05-18 12:55:18.784541,0.20326700844466375,-0.7973877345298847,0.8080686955931744,476.7067242805515,70
2025-05-18 12:55:18.794542,0.15815335697552513,-0.8216225588574,0.8440774969325322,500.11924815276984,74
2025-05-18 12:55:18.804543,0.21987722056284442,-0.8012908240567883,0.8157282057787277,496.6333787380055,73
2025-05-18 12:55:18.814545,0.1861569112868371,-0.7781504894291464,0.8376546067173566,505.094779691505,73
2025-05-18 12:55:18.824546,0.19732701335334593,-0.7474809454294804,0.8537555097698203,487.9494792852474,70
2025-05-18 12:55:18.834547,0.21887955244695376,-0.8094651949432524,0.8335006338756146,498.9228021301533,71
2025-05-18 12:55:18.844548,0.2520327651100365,-0.7274349828239998,0.8496309113950334,508.9562408291402,73
2025-05-18 12:55:18.854549,0.2140179792720903,-0.730487384420265,0.8538283260931947,514.1728374391134,74
2025-05-18 12:55:18.864550,0.2086876980144723,-0.7212951425208439,0.8429418742864828,508.07912231446966,71
2025-05-18 12:55:18.874551,0.25256899605950367,-0.7190635364765888,0.8841734535279115,501.2365834757547,74
2025-05-18 12:55:18.884552,0.22365668904268285,-0.7089244579527895,0.9058444440895622,523.6484178975356,73
2025-05-18 12:55:18.894553,0.29076870245263936,-0.7227262421014871,0.8727022308778499,487.3821220639017,70
2025-05-18 12:55:18.904554,0.2225153345270279,-0.7111848732375577,0.8551401821792858,529.4289027416537,74
2025-05-18 12:55:18.914555,0.2259356877656892,-0.7216401609011972,0.8681738219946645,536.6284506807722,72
2025-05-18 12:55:18.924556,0.24692444460931084,-0.7007496379299823,0.9424424294945204,543.7805682838143,71
2025-05-18 12:55:18.934558,0.2583682967785934,-0.6820616692204206,0.8765076501691426,544.6410828696165,74
2025-05-18 12:55:18.944559,0.27341760836086115,-0.6944565676476532,0.9053824040271932,554.2712150776846,70
2025-05-18 12:55:18.954560,0.28382090531631426,-0.6616345386673351,0.8798719495425351,568.1942820616254,70
2025-05-18 12:55:18.964561,0.3007751909405344,-0.6876991337554743,0.9206881639056665,565.0749294590177,72
2025-05-18 12:55:18.974562,0.30384072114516014,-0.6660816197555064,0.8747099422831127,609.9373744475037,72
2025-05-18 12:55:18.984563,0.26824560984602464,-0.6519570253718833,0.9185440998610575,612.1060875245769,74
2025-05-18 12:55:18.994564,0.2803401660263163,-0.589576346566827,0.878811113084442,638.3591002466408,74
2025-05-18 12:55:19.004565,0.2950736998711873,-0.6472742628570582,0.8893237399259568,679.7983200999993,73
2025-05-18 12:55:19.014566,0.29609129104573206,-0.6588691416125717,0.910051858405549,650.5085442759863,72
2025-05-18 12:55:19.024567,0.30487156342508903,-0.6284756671789841,0.8811859278000811,720.8128373022776,72
2025-05-18 12:55:19.034569,0.27535043299962614,-0.6384428762010073,0.9021946600147724,688.2186703046497,73
2025-05-18 12:55:19.044570,0.2909546247503289,-0.6261428744207684,0.9108808025631504,702.9677347326315,72
2025-05-18 12:55:19.054571,0.33149400366183696,-0.6225448668439011,0.8802833204789879,674.1966689766625,73
2025-05-18 12:55:19.064572,0.31344442983110865,-0.631496521506241,0.9085312573987974,709.8827637542561,73
2025-05-18 12:55:19.074573,0.30658751888258373,-0.6032446851440817,0.8402390033113896,693.5053582871736,70
2025-05-18 12:55:19.084574,0.282942224129,-0.6433876325813997,0.8700124057073764,710.0637844941764,73
2025-05-18 12:55:19.094575,0.3075275171039564,-0.599536978139468,0.8863368662662191,694.8264746254712,72
2025-05-18 12:55:19.104576,0.2913896149545769,-0.6293358693894131,0.8687209221944333,671.3474389510611,73
2025-05-18 12:55:19.114577,0.2946089969023402,-0.6204130390800008,0.8351306598551502,674.145385382554,73
2025-05-18 12:55:19.124578,0.31010033941888443,-0.5983654328907778,0.8434740945361022,650.7605770052313,74
2025-05-18 12:55:19.134579,0.30780172819252527,-0.5860435396543078,0.832583383942986,632.5678417178833,70
2025-05-18 12:55:19.144580,0.26533745602544356,-0.5871475966396489,0.8606306706557308,630.2695223431853,70
2025-05-18 12:55:19.154582,0.26393993840722463,-0.6167086427652239,0.833019970697495,589.8128036748941,74
2025-05-18 12:55:19.164583,0.27284058792421934,-0.5953170176139606,0.8344937623752009,576.0082750319009,72
2025-05-18 12:55:19.174584,0.26730843182305375,-0.5956015390974421,0.776642822745421,561.5533469661345,71
2025-05-18 12:55:19.184585,0.2884439462394772,-0.6529264699508335,0.785346544787948,536.7243224011252,70
2025-05-18 12:55:19.194586,0.27574432396796217,-0.5926035907251376,0.768330777348299,540.5163337384056,71
2025-05-18 12:55:19.204587,0.26118020731461206,-0.5718401070993299,0.7498717340255185,510.2969487546479,71
2025-05-18 12:55:19.214588,0.27742489819062316,-0.5991655992985455,0.7719275708708687,516.8343464870234,71
2025-05-18 12:55:19.224589,0.25773367429747474,-0.6016979497082351,0.768098057835591,484.15552958982323,72
2025-05-18 12:55:19.234591,0.2292226806172093,-0.6033849685564766,0.753327795742965,481.45121806017727,73
2025-05-18 12:55:19.244592,0.2268247973631451,-0.6268796996863335,0.764817074461707,507.9712359430487,72
2025-05-18 12:55:19.254593,0.22140422600194543,-0.619230300604176,0.7565507637651322,504.5594918638414,70
2025-05-18 12:55:19.264594,0.2055131139470039,-0.594943214108974,0.7328080588494887,507.40532842796864,70
2025-05-18 12:55:19.274595,0.22723602059124956,-0.6321216860343059,0.7008892671778205,507.14429486812406,72
2025-05-18 12:55:19.284596,0.23696332894762667,-0.6164736112098144,0.72297026525869,485.50801795377606,72
2025-05-18 12:55:19.294597,0.20417103652386723,-0.5959658053637495,0.7064849582837862,513.238336518306,74
2025-05-18 12:55:19.304598,0.20644332850163055,-0.6158919087264146,0.7091384503666093,492.5037084367761,74
2025-05-18 12:55:19.314599,0.1921415322368664,-0.6206626190137703,0.7356924200829263,487.14226098396455,74
2025-05-18 12:55:19.324600,0.20893385013387566,-0.6005145262877607,0.7306085349742311,466.71743892254347,73
2025-05-18 12:55:19.334602,0.19071858470548378,-0.619789159460376,0.6960219700032991,474.6561646288837,72
2025-05-18 12:55:19.344603,0.18704699930896848,-0.6697677173777795,0.7096008925944739,462.25982053442846,71
2025-05-18 12:55:19.354604,0.1569737108294669,-0.6461436119434673,0.7562150274776565,450.56174431750253,71
2025-05-18 12:55:19.364605,0.15880123075519262,-0.6513122639725211,0.675448086404114,438.5982436325481,70
2025-05-18 12:55:19.374606,0.13712177578541837,-0.6418886932175109,0.6811151119124985,409.4457835986635,74
2025-05-18 12:55:19.384607,0.13956956060917397,-0.7030520715319581,0.734797475528495,395.1745863198489,71
2025-05-18 12:55:19.394608,0.10025220302298568,-0.6446853089953094,0.6859979255017733,351.72483452142626,70
2025-05-18 12:55:19.404609,0.11874384895427778,-0.6437483974596837,0.6859860307151937,377.33731232994114,73
2025-05-18 12:55:19.414610,0.06675966255607138,-0.6846239271008594,0.732627208935775,357.78879755455455,73
2025-05-18 12:55:19.424611,0.0960810551261245,-0.6844704842654893,0.6673265012743779,333.2636784182322,73
2025-05-18 12:55:19.434613,0.11196788638547846,-0.6745892642032439,0.7174625672013488,312.47687452305166,73
2025-05-18 12:55:19.444614,0.07498356609838691,-0.6710263296351026,0.6577532752382754,305.4626867127717,74
2025-05-18 12:55:19.454615,0.11483351523119167,-0.7099879037761729,0.722230920570607,284.59118891446616,70
2025-05-18 12:55:19.464616,0.06930851982508089,-0.7118438837111595,0.7181774612634572,286.2717584128713,71
2025-05-18 12:55:19.474617,0.051883048456758105,-0.7062637592076777,0.7495438775375082,288.72653511820357,70
2025-05-18 12:55:19.484618,0.04036773981798688,-0.7002422026485183,0.720440210583135,284.31808019334153,74
2025-05-18 12:55:19.494619,0.02562097863146779,-0.7173284649738936,0.7366368047552315,299.5045630768333,72
2025-05-18 12:55:19.504620,0.033772577165896996,-0.742261519385453,0.74829625260125,289.41275833504056,71
2025-05-18 12:55:19.514621,0.04653657328859056,-0.7423087560794988,0.7309826350708059,331.9221378506567,73
2025-05-18 12:55:19.524622,0.00976727555557846,-0.7606746660479158,0.7521550756696569,325.56364997633005,73
2025-05-18 12:55:19.534623,0.0019310582466127851,-0.7863529126811568,0.7849301458934399,334.82233367694573,71
2025-05-18 12:55:19.544625,0.00787273589694025,-0.7622579698238887,0.7648627534143684,364.91439603616175,70
2025-05-18 12:55:19.554626,0.02858371123937148,-0.770379494187109,0.7608398993661927,373.74573195856243,73
2025-05-18 12:55:19.564627,0.011810217591212906,-0.8218469520393468,0.7937890277984048,386.8524981265583,70
2025-05-18 12:55:19.574628,0.0020211272910872977,-0.8151217292219682,0.8282110540036746,429.68741649046706,71
2025-05-18 12:55:19.584629,0.0026406207246026762,-0.8361388786794857,0.7945220259086648,417.2508679213147,74
2025-05-18 12:55:19.594630,0.0046575643824289005,-0.828957989204623,0.7997086805491778,442.6807877549649,72
2025-05-18 12:55:19.604631,0.005366285198662134,-0.8283593859546623,0.7803446400566758,458.26831395172405,74
2025-05-18 12:55:19.614632,-0.014884665690368882,-0.872355697173646,0.8162474207430968,481.6329592998796,74
2025-05-18 12:55:19.624633,-0.03589848309836552,-0.8730567753154793,0.8221492980095394,490.5380321084162,71
2025-05-18 12:55:19.634634,-0.04371545937327301,-0.8693491409883515,0.853293850069558,514.930428392826,71
2025-05-18 12:55:19.644635,-0.05382638507239872,-0.8554852488288975,0.8308290204856607,502.78670899252745,72
2025-05-18 12:55:19.654636,-0.05989047468705916,-0.9125376691917202,0.8840355466958023,488.4798928543053,74
2025-05-18 12:55:19.664637,-0.0517984372417391,-0.8904354189635473,0.8259053119964181,454.6683029053427,73
2025-05-18 12:55:19.674639,-0.04793461198339999,-0.8694782416613928,0.8799265025229888,507.0518461744136,72
2025-05-18 12:55:19.684640,-0.08262909376758334,-0.8828759272520582,0.8857782856422337,485.57737333461466,71
2025-05-18 12:55:19.694641,-0.06583894280063196,-0.9043086241922015,0.8741838595898239,490.31551110415285,71
2025-05-18 12:55:19.704642,-0.06975204727688178,-0.9388819620137505,0.8551115487608769,522.7101940504576,72
2025-05-18 12:55:19.714643,-0.10069578388271996,-0.9321193061600472,0.8876056478981625,504.24320685612395,70
2025-05-18 12:55:19.724644,-0.10746983823086818,-0.9243033960723316,0.8929014401308432,497.44257619202625,70
2025-05-18 12:55:19.734645,-0.08065172390334753,-0.9470316776007514,0.8909865111268966,510.8174388412499,74
2025-05-18 12:55:19.744646,-0.09753866113427685,-0.9366625011232915,0.8932525519651361,519.0045915855604,73
2025-05-18 12:55:19.754647,-0.08929316067170145,-0.9691574761926428,0.9294448747565709,529.8928052902314,73
2025-05-18 12:55:19.764649,-0.0918727580465152,-0.9830045272729971,0.8783109731898827,533.3197901704309,72
2025-05-18 12:55:19.774650,-0.08072845018202965,-0.9446106684111797,0.8731395589830815,571.7340584997062,74
2025-05-18 12:55:19.784651,-0.1293485133342373,-1.0175122990442018,0.9009922678400557,559.9924653215388,73
2025-05-18 12:55:19.794652,-0.10315957032964643,-0.9974915492912105,0.8610820809126833,566.8207189405164,72
2025-05-18 12:55:19.804653,-0.1074546028311745,-1.0027066781723408,0.9556385185440812,606.0369647765624,73
2025-05-18 12:55:19.814654,-0.11146529471907118,-1.0188298835745588,0.8773748175555325,595.9624896467473,74
2025-05-18 12:55:19.824655,-0.09713191420866232,-1.0212089632450052,0.8801842541617194,641.2534372107399,72
2025-05-18 12:55:19.834656,-0.09319401250259282,-1.032753355670567,0.8907974906036573,661.6189210248924,71
2025-05-18 12:55:19.844658,-0.08517966864927946,-1.052453193134704,0.9042770576253109,666.5131229935718,71
2025-05-18 12:55:19.854659,-0.07962579254309089,-1.0334875004725934,0.8549950689596316,689.8735363157077,70
2025-05-18 12:55:19.864660,-0.09038482126527507,-1.0675550905914193,0.8880455660840211,688.0108806196262,74
2025-05-18 12:55:19.874661,-0.09459877283667163,-1.0667525642389926,0.8680980598229854,721.7634975867335,70
2025-05-18 12:55:19.884662,-0.10662535983952266,-1.061250952723095,0.8808694160381635,723.318476161797,70
2025-05-18 12:55:19.894663,-0.07408795184563982,-1.0975680794956797,0.8498759223948887,711.0459300973404,70
2025-05-18 12:55:19.904664,-0.08364010225948404,-1.1325409088436316,0.8652549339911366,677.0110045147267,73
2025-05-18 12:55:19.914665,-0.10437810676850633,-1.1189086273387168,0.846823252979708,716.9278684679554,74
2025-05-18 12:55:19.924667,-0.09819133307995033,-1.0932372350998965,0.8672832963897721,679.742514978111,72
2025-05-18 12:55:19.934668,-0.08288214441849252,-1.1068791897964219,0.8563101873913787,697.6004496997878,72
2025-05-18 12:55:19.944669,-0.09975403489093906,-1.1453902855351932,0.8484505661689382,678.5420958918132,70
2025-05-18 12:55:19.954670,-0.09683509865557666,-1.1230950240516084,0.8371279685050919,665.3036962381823,72
2025-05-18 12:55:19.964671,-0.04640423646493315,-1.1043590455045762,0.8075129554294089,639.0634087830234,73
2025-05-18 12:55:19.974672,-0.04998077937869779,-1.1747484704790643,0.7913938970073939,644.1962072628037,71
2025-05-18 12:55:19.984673,-0.05557656187390862,-1.128282585496863,0.7958680851622405,582.7887380033453,72
2025-05-18 12:55:19.994674,-0.031214809688674447,-1.1507434057716126,0.792037654395492,583.6615811369959,74
2025-05-18 12:55:20.004675,-0.05676086784208938,-1.1746915017893191,0.7819839121223069,561.6344213279014,72
2025-05-18 12:55:20.014676,-0.021729282803612783,-1.165701441709419,0.7807586401659162,539.5968934178031,71
2025-05-18 12:55:20.024677,0.019067374738409505,-1.1645539624426335,0.7393540560930032,541.751435117043,70
2025-05-18 12:55:20.034679,-0.04208104087657644,-1.192726072970395,0.788248903234288,523.9486108650266,74
2025-05-18 12:55:20.044680,0.007282834240574361,-1.1835014098455585,0.7175244447178767,509.35219477730607,73
2025-05-18 12:55:20.054681,-0.03172435039165806,-1.14947041057494,0.7554453380111381,524.6661394220455,71
2025-05-18 12:55:20.064682,0.005490915648870534,-1.2014661277664642,0.7699378623241584,512.9194844223966,74
2025-05-18 12:55:20.074683,-0.012176729607479713,-1.1743979627829273,0.7328950065553247,487.5787397075038,74
2025-05-18 12:55:20.084684,0.05530439597149936,-1.1782083770382872,0.7324010869526043,490.8477198321122,73
2025-05-18 12:55:20.094685,0.03225965511178469,-1.217008372458177,0.7168116487875218,512.4222222610124,74
2025-05-18 12:55:20.104686,0.043174265031026754,-1.1958355040940372,0.7271235182062963,487.56853755590225,71
2025-05-18 12:55:20.114687,0.029494995533123732,-1.1904584099291355,0.7192505268693808,498.8496578083544,70
2025-05-18 12:55:20.124688,0.01900246241711622,-1.18478300060987,0.6977578321612476,494.23300244427355,70
2025-05-18 12:55:20.134690,0.0657202545896467,-1.2005111403742628,0.6894498653805373,511.58822970380743,71
2025-05-18 12:55:20.144691,0.09605342587480664,-1.1810553233656,0.6999465653902791,464.3671301259268,72
2025-05-18 12:55:20.154692,0.08859542103471361,-1.1997367155725949,0.696698382304159,488.7241822982784,74
2025-05-18 12:55:20.164693,0.09278352413663163,-1.2036692732448762,0.7142052113498949,487.22722522788484,70
2025-05-18 12:55:20.174694,0.1083239696503025,-1.2084371023335971,0.707098462336167,443.88138623580653,72
2025-05-18 12:55:20.184695,0.10801514381107928,-1.193321615900777,0.7288894085290777,464.0724457821407,71
2025-05-18 12:55:20.194696,0.1096059259089642,-1.227196333282408,0.7045511898709076,428.07500493632614,70
2025-05-18 12:55:20.204697,0.09607461489770155,-1.203317841803668,0.7150212784914691,406.1260714571659,71
2025-05-18 12:55:20.214699,0.12388227087112057,-1.2248332109850304,0.7359605167878324,408.2437019192271,72
2025-05-18 12:55:20.224700,0.13349339525138743,-1.1891748570964495,0.7049014292483541,403.9803893936438,70
2025-05-18 12:55:20.234701,0.1374457989210631,-1.2178527766709488,0.6649255176806843,348.092592428889,71
2025-05-18 12:55:20.244702,0.14488921704863136,-1.1930394106029114,0.7112188355043157,345.99770278951013,74
2025-05-18 12:55:20.254703,0.13866463919191563,-1.186401300550371,0.7139084255916979,345.3412261690166,70
2025-05-18 12:55:20.264704,0.14534893537913862,-1.1765642154780394,0.705517952867092,307.1195943102389,71
2025-05-18 12:55:20.274705,0.17339821820199738,-1.1886813842463797,0.7054155994590777,307.9658302938907,71
2025-05-18 12:55:20.284707,0.2182843345665911,-1.1656182885528337,0.7807082435432013,307.4894752313217,70
2025-05-18 12:55:20.294708,0.1826327151729488,-1.1975975782035961,0.7048384362212197,281.75297581920375,72
2025-05-18 12:55:20.304709,0.19852653815473237,-1.1705909567759327,0.754249125474134,303.5816000868267,74
2025-05-18 12:55:20.314710,0.18283671005862479,-1.1903565694870741,0.7414628269698507,269.0181024179258,73
2025-05-18 12:55:20.324711,0.25743116769586305,-1.1512035877102678,0.7357621908185666,305.1414179158209,70
2025-05-18 12:55:20.334712,0.24186334738655577,-1.1270846753856278,0.773562133313287,294.08486776934484,72
2025-05-18 12:55:20.344713,0.21937510961262563,-1.161255345862308,0.7765615889149415,280.72527917748647,70
2025-05-18 12:55:20.354714,0.232921059279483,-1.1492217052035492,0.7674594734217509,334.0948102413939,71
2025-05-18 12:55:20.364715,0.24548936299133312,-1.1419914031012497,0.785927716870649,348.63230338240743,71
2025-05-18 12:55:20.374717,0.2128578656771885,-1.1444420075587725,0.800727036122256,382.3187299278942,71
2025-05-18 12:55:20.384718,0.2437097645978232,-1.1529604438126797,0.7843250143445678,364.0743257315833,74
2025-05-18 12:55:20.394719,0.2920360296653014,-1.157468435709311,0.8112508913976546,413.00261218626235,72
2025-05-18 12:55:20.404720,0.26265728381817677,-1.0916601578312632,0.8322039720544028,379.3599821315285,70
2025-05-18 12:55:20.414721,0.22881454789511826,-1.1353535032519027,0.8175019696387408,444.2526459145768,71
2025-05-18 12:55:20.424722,0.2809907323776062,-1.0944059934668278,0.8121252899922401,447.26909654012053,73
2025-05-18 12:55:20.434723,0.29007359047769177,-1.1204821010707287,0.7971967722848052,464.603432439033,73
2025-05-18 12:55:20.444724,0.29321139287355824,-1.084208497557844,0.8258860524095436,470.0334119487279,72
2025-05-18 12:55:20.454725,0.26298124569463693,-1.1043694520261256,0.8773655598751163,458.1717720196061,71
2025-05-18 12:55:20.464727,0.28970834887553415,-1.0872733329417548,0.8492043162409564,495.05071186083387,71
2025-05-18 12:55:20.474728,0.30275279493313256,-1.084698765857066,0.8605166073779669,511.939413030221,73
2025-05-18 12:55:20.484729,0.30380244979269916,-1.0549262178862573,0.8739266914742669,507.73340597736956,70
2025-05-18 12:55:20.494730,0.27465519450875625,-1.0885260692972631,0.8838040083425502,479.07390773428364,74
2025-05-18 12:55:20.504731,0.28147747677296503,-1.0313042780106674,0.8820187012213936,495.55994133905546,74
2025-05-18 12:55:20.514732,0.2703423744702096,-1.0430220237987913,0.8518132443987295,516.6546135310216,74
2025-05-18 12:55:20.524733,0.29558860693115013,-1.0725926063689024,0.8993473366614833,502.91987067847,74
2025-05-18 12:55:20.534734,0.2937132987516773,-1.0233995296633953,0.90353329648847,528.4169768058521,71
2025-05-18 12:55:20.544735,0.2928606382852708,-1.0433539623576444,0.9007804657152548,505.16307959715164,70
2025-05-18 12:55:20.554736,0.3244101473693803,-1.031894781817193,0.9403323468853688,497.7623647390816,73
2025-05-18 12:55:20.564738,0.2974711490041282,-0.9926906674065633,0.8989406565720196,489.77204540465897,74
2025-05-18 12:55:20.574739,0.2771923407978732,-1.0016951516057715,0.9108140222164269,515.9545393600835,72
2025-05-18 12:55:20.584740,0.3036098560694998,-0.9984170877540229,0.9287103445421979,521.028072287064,72
2025-05-18 12:55:20.594741,0.3377069074807926,-1.0183550289002878,0.8955889434901115,542.6092484106958,72
2025-05-18 12:55:20.604742,0.31516494785880145,-0.9803649516501532,0.906036546399939,570.5197899845527,70
2025-05-18 12:55:20.614743,0.2885500235855231,-0.9975181830689716,0.9082208785059317,564.8518770564342,70
2025-05-18 12:55:20.624744,0.30577745733333184,-1.0049946703416914,0.913355659294292,574.910945135484,70
2025-05-18 12:55:20.634745,0.2623724505935201,-0.9471020936003083,0.8869429285574506,591.1497068166871,72
2025-05-18 12:55:20.644746,0.3246066639041077,-0.959965686021073,0.9323348046190872,581.0134582860276,71
2025-05-18 12:55:20.654747,0.2576382912489189,-0.9149656098746474,0.8964081748919143,594.3056983610444,73
2025-05-18 12:55:20.664749,0.26398252311444015,-0.9389056897775789,0.8849356129897584,671.2819246586954,72
2025-05-18 12:55:20.674750,0.2768680399257497,-0.8970599324565379,0.8682438813982801,676.3175736424339,72
2025-05-18 12:55:20.684751,0.27012693257937165,-0.8818092041953415,0.9080126648106919,674.623987091906,72
2025-05-18 12:55:20.694752,0.2615118480512613,-0.9115555538881076,0.8677764555810694,714.1786679191135,71
2025-05-18 12:55:20.704753,0.2829235494142758,-0.9202126113713657,0.8879736230240386,708.6254056192752,70
2025-05-18 12:55:20.714754,0.25819301999878763,-0.8809356646346,0.8297084717870445,696.6160489266098,70
2025-05-18 12:55:20.724755,0.22958253247110455,-0.863511531767491,0.8465856241087982,688.814628796396,74
2025-05-18 12:55:20.734756,0.25751500448058817,-0.8824125121891776,0.8466637639903182,739.3927334703548,73
2025-05-18 12:55:20.744757,0.2663903172149058,-0.8441465379364743,0.8702131838383169,701.5462549040437,73
2025-05-18 12:55:20.754759,0.2177241499362491,-0.8360784381761521,0.8042745825941082,704.604419362524,70
2025-05-18 12:55:20.764760,0.23038637602874865,-0.8223548520509674,0.8086008910226803,656.3775406821223,73
2025-05-18 12:55:20.774761,0.23035734894640827,-0.7916561975333262,0.817796000037464,685.2671044431186,74
2025-05-18 12:55:20.784762,0.22099064989760198,-0.8219015122899224,0.7820365103549225,670.6266364253214,70
2025-05-18 12:55:20.794763,0.2011084875779412,-0.7998294149715651,0.8152780632333984,626.0641207629504,72
2025-05-18 12:55:20.804764,0.1974668808710837,-0.8119758369344775,0.771557738844787,622.1585622498275,73
2025-05-18 12:55:20.814765,0.22237841733941532,-0.8060385394409821,0.7567002951703655,600.9805289324022,73
2025-05-18 12:55:20.824766,0.21212372884175607,-0.7192868293718357,0.7799031888238984,557.3417224472425,72
2025-05-18 12:55:20.834768,0.16858174734851183,-0.7709200154796525,0.7575058076544333,545.9889194693776,73
2025-05-18 12:55:20.844769,0.16958684331745844,-0.7379100322863162,0.7591030701379476,547.4988079577831,71
2025-05-18 12:55:20.854770,0.18180472991326288,-0.7435419505430482,0.7452269212080845,543.6349797951664,73
2025-05-18 12:55:20.864771,0.1456589029164176,-0.7459986555653274,0.7287159247418775,521.9260134935319,71
2025-05-18 12:55:20.874772,0.12911664244720733,-0.7297209178674009,0.7222119726235389,533.0944702072038,71
2025-05-18 12:55:20.884773,0.13099487453116443,-0.7456805484864373,0.7253644150469827,508.82950117627786,74
2025-05-18 12:55:20.894774,0.13898993873185095,-0.6836344262442804,0.6994917941132042,502.34113067674747,70
2025-05-18 12:55:20.904775,0.1440535205076263,-0.7175235530218866,0.7317571632543782,514.7626223680777,71
2025-05-18 12:55:20.914776,0.11864409829110366,-0.6654332785323982,0.696523330098043,521.6467558396394,72
2025-05-18 12:55:20.924778,0.13936056693784324,-0.6920876776736262,0.6909200181681481,486.6803364049401,73
2025-05-18 12:55:20.934779,0.10683349648728872,-0.6941918616055884,0.7397388604782416,519.0508246730284,73
2025-05-18 12:55:20.944780,0.09059577396336377,-0.6818073507138133,0.7300016861399283,503.0564636584707,70
2025-05-18 12:55:20.954781,0.06954872932235295,-0.6794263280299746,0.7001619004647214,469.04069035885954,71
2025-05-18 12:55:20.964782,0.060121779540288404,-0.6685749499093787,0.6930898845152281,491.62221892854427,70
2025-05-18 12:55:20.974783,0.06899797702650401,-0.662132630450859,0.6918966161193795,497.7605379543265,74
2025-05-18 12:55:20.984784,0.03637657973784518,-0.6578877268318369,0.7189914159463722,493.65920441775006,70
2025-05-18 12:55:20.994785,0.013391342571525577,-0.6817256751107952,0.6603898080578033,480.6009382809202,73
2025-05-18 12:55:21.004786,0.04897532516245414,-0.6597899243024368,0.702886844116317,487.93459251680645,71
2025-05-18 12:55:21.014788,0.01991391066850056,-0.6449156039704524,0.7366354910273148,481.72721920639043,73
2025-05-18 12:55:21.024789,0.05179267266587662,-0.6547683102071148,0.7172861169802939,451.3607332386204,72
2025-05-18 12:55:21.034790,-0.022641914861910237,-0.6603652612803458,0.7110849583746718,406.53507950671633,74
2025-05-18 12:55:21.044791,-0.035974110310651376,-0.6505756406574897,0.705787271186832,436.6002100803199,71
2025-05-18 12:55:21.054792,-0.01577292351497041,-0.6520359267724538,0.7452333066844539,407.9711710731049,72
2025-05-18 12:55:21.064793,-0.002728684676065335,-0.6166992125749833,0.7321323567113357,380.11543902740254,72
2025-05-18 12:55:21.074794,0.003964255364495101,-0.5836166132661136,0.6947180016337018,351.0168655535011,72
2025-05-18 12:55:21.084796,-0.01503568599775561,-0.6206471826109847,0.7301100309208568,328.7455711852628,71
2025-05-18 12:55:21.094797,-0.031357445277932904,-0.5975318814119667,0.6991480492962137,333.51167182060635,72
2025-05-18 12:55:21.104798,-0.02927102426614847,-0.6256235672457577,0.735818193450462,294.72238902987266,73
2025-05-18 12:55:21.114799,-0.040773663888844416,-0.6037074169907352,0.7449010196569367,297.5871743631714,74
2025-05-18 12:55:21.124800,-0.05474247683511593,-0.6079638231888285,0.8023417011156556,276.9392254980532,74
2025-05-18 12:55:21.134801,-0.05863444496744099,-0.6115921736034688,0.7662251212208553,291.07187321767674,72
2025-05-18 12:55:21.144802,-0.07790214303263399,-0.616369452541897,0.7824504900748163,278.248850610215,71
2025-05-18 12:55:21.154803,-0.015563510303740494,-0.602023712341704,0.785701609473963,305.78539630686697,73
2025-05-18 12:55:21.164804,-0.08070717153976158,-0.6186459427609352,0.7920018057451534,279.20272235426046,72
2025-05-18 12:55:21.174805,-0.044988998015006575,-0.5950425565169117,0.8236612244012959,288.1242706138133,73
2025-05-18 12:55:21.184807,-0.060538075722478255,-0.6029743025143365,0.7782868729081607,337.82331920498257,72
2025-05-18 12:55:21.194808,-0.07606615744879947,-0.5898256977920181,0.8124376498007896,348.1275543379553,74
2025-05-18 12:55:21.204809,-0.13275587170798456,-0.6197027737421509,0.7952324683548198,340.731480006584,74
2025-05-18 12:55:21.214810,-0.08940683450246756,-0.6163133741224127,0.8325723392481007,342.9467837578688,71
2025-05-18 12:55:21.224811,-0.09005363328616564,-0.6061415099191415,0.8352481243322304,404.9660425227184,73
2025-05-18 12:55:21.234812,-0.08855918500030026,-0.6387298596781645,0.8278139919169158,383.9243707421569,70
2025-05-18 12:55:21.244813,-0.09726335326911018,-0.5958581693412731,0.8681439819456674,420.78190150119474,71
2025-05-18 12:55:21.254814,-0.10336869304815158,-0.632405019937719,0.8817868995239224,436.5805849942689,73
2025-05-18 12:55:21.264816,-0.08487139997037864,-0.6214963409264619,0.8593653061673193,464.90862950886117,70
2025-05-18 12:55:21.274817,-0.101910387830196,-0.6230157069163111,0.8869534082039086,454.86322419926245,71
2025-05-18 12:55:21.284818,-0.1361802700986104,-0.6167753171228992,0.9129435131443187,490.1636443860281,71
2025-05-18 12:55:21.294819,-0.06919769406383176,-0.6099603144801017,0.8745515615203743,468.9357796785133,73
2025-05-18 12:55:21.304820,-0.11104285260894123,-0.6346101708497079,0.8916161945137008,470.0972196805652,72
2025-05-18 12:55:21.314821,-0.10013472402292857,-0.6107538591423469,0.8758205095281872,488.3816482746087,71
2025-05-18 12:55:21.324822,-0.10064555972926095,-0.6339635167155908,0.9090420083631869,530.646010383091,72
2025-05-18 12:55:21.334823,-0.10166716466181944,-0.6388561651517671,0.8961264740945375,486.1294079874857,74
2025-05-18 12:55:21.344824,-0.10636351434216579,-0.6558107212327204,0.8870067527814764,514.623792251993,73
2025-05-18 12:55:21.354825,-0.06118883028996344,-0.6395042807242114,0.924693094532454,514.542194055795,74
2025-05-18 12:55:21.364827,-0.05537673610678533,-0.6449339985409536,0.87842134981251,510.57974030338454,71
2025-05-18 12:55:21.374828,-0.07084142718125154,-0.6652002235087857,0.931459651282823,498.9814665465009,70
2025-05-18 12:55:21.384829,-0.05553805602171901,-0.6492801797801764,0.9180216625701483,490.5313110035112,73
2025-05-18 12:55:21.394830,-0.10277625028883046,-0.6570218344844607,0.8837593835613693,510.6859588977279,73
2025-05-18 12:55:21.404831,-0.09850305963691541,-0.6969486426990591,0.8778660138315739,510.1642114629024,72
2025-05-18 12:55:21.414832,-0.10427143896878137,-0.7075099413306596,0.9125471494599074,486.01584368019115,73
2025-05-18 12:55:21.424833,-0.06282020429824645,-0.6504083875870305,0.8684954861932428,512.2851387514604,73
2025-05-18 12:55:21.434834,-0.08712558387772731,-0.6955531912821252,0.8669693269501194,529.5175888310474,71
2025-05-18 12:55:21.444836,-0.04566073732746183,-0.6848606020497617,0.8665006975946746,532.4115924778299,72
2025-05-18 12:55:21.454837,-0.06246684519131887,-0.6915508985408962,0.8741302427459805,578.8731235107116,74
2025-05-18 12:55:21.464838,-0.058860945984909596,-0.7286335843313831,0.8917724024118034,581.2679943615236,70
2025-05-18 12:55:21.474839,-0.0489817515224474,-0.6785758684840383,0.8462495552768784,601.1999300678947,70
2025-05-18 12:55:21.484840,-0.0675862972511708,-0.715230803749431,0.8994897591216303,636.914553963895,70
2025-05-18 12:55:21.494841,-0.05984080670882443,-0.7309078358627852,0.8810695100007148,654.8990352969028,71
2025-05-18 12:55:21.504842,-0.0556830352120402,-0.7885127379690874,0.8815518890556967,668.1438688047384,70
2025-05-18 12:55:21.514843,-0.04858252234951066,-0.7006960640124977,0.8670097501818167,688.073531399058,74
2025-05-18 12:55:21.524844,-0.038579087862135666,-0.7125128470113717,0.8470382649323269,673.3100985595453,74
2025-05-18 12:55:21.534846,-0.03087795092281368,-0.7770403802881816,0.8001967513316876,737.8424985438403,72
2025-05-18 12:55:21.544847,-0.0016344891797078574,-0.8227601511435527,0.8290543147058484,724.4619142936662,72
2025-05-18 12:55:21.554848,0.005532392493181161,-0.7630695836143541,0.8262797173502099,731.0150885818108,71
2025-05-18 12:55:21.564849,0.025572056570465084,-0.7877937337537391,0.8576938163402164,703.015650206027,71
2025-05-18 12:55:21.574850,0.020391729831091714,-0.8197639329664728,0.8225260224740839,713.1664740236511,70
2025-05-18 12:55:21.584851,0.02025225399383188,-0.815796830446332,0.7823636465438475,689.6990604321635,74
2025-05-18 12:55:21.594852,0.006538509629538076,-0.7852224488540881,0.8180769090953525,669.1997433604267,70
2025-05-18 12:55:21.604853,0.022736066223187683,-0.8359570390793958,0.793263105757718,689.0310445255775,74
2025-05-18 12:55:21.614854,0.033456427113906485,-0.8290780097356919,0.7931213275062312,654.7063439558267,72
2025-05-18 12:55:21.624855,0.04319903928081174,-0.8278985128083293,0.7783653041893541,660.7156852038977,70
2025-05-18 12:55:21.634857,0.03656842331023957,-0.8696703190180011,0.7521921247938137,617.8557268625707,73
2025-05-18 12:55:21.644858,0.0835927044108055,-0.8582574239962556,0.7882202633115862,628.0096647331588,71
2025-05-18 12:55:21.654859,0.05344111027595007,-0.8469053205452786,0.7140434524968692,576.7554752290002,73
2025-05-18 12:55:21.664860,0.08768704383856565,-0.8867567177302448,0.7586513647553051,576.0745597487028,70
2025-05-18 12:55:21.674861,0.10316071982454832,-0.9214716201023265,0.7234983277294382,579.9257679250848,74
2025-05-18 12:55:21.684862,0.10697969517576449,-0.9250425204304451,0.7334208101270656,541.3115052668556,72
2025-05-18 12:55:21.694863,0.10260072114939857,-0.8979846307478654,0.7120546636422977,506.3258670880168,74
2025-05-18 12:55:21.704864,0.09919069577966858,-0.89683856269054,0.6670244797340273,499.3504363779472,70
2025-05-18 12:55:21.714865,0.12335208088344252,-0.9089701972732115,0.7496673874116312,513.6715712160455,70
2025-05-18 12:55:21.724866,0.09210010994495373,-0.9514803249370166,0.7690638693746364,526.7491154051957,74
2025-05-18 12:55:21.734867,0.13586785064440318,-0.9717720775692444,0.7038875418811034,495.6902499402987,74
2025-05-18 12:55:21.744869,0.17539275004747917,-0.9954324313340072,0.6675339357911079,505.75049257724044,72
2025-05-18 12:55:21.754870,0.15718274324908738,-0.9366921065855476,0.7248446636007829,486.8557598455801,72
2025-05-18 12:55:21.764871,0.15245935968792995,-0.9722484719929319,0.7021278361224863,491.732254991616,70
2025-05-18 12:55:21.774872,0.1667728028645329,-1.0003344977559603,0.699623308933856,476.3931262418668,70
2025-05-18 12:55:21.784873,0.17555150568430294,-1.0035483348958545,0.6707464286034587,533.2246308567347,71
2025-05-18 12:55:21.794874,0.1740592618925852,-1.004047327953901,0.717443094962407,522.7205177477368,72
2025-05-18 12:55:21.804875,0.19667186267488532,-0.9924594670348162,0.7085489870038189,489.2826615353645,74
2025-05-18 12:55:21.814876,0.2007243960200818,-1.003579833446447,0.7033054564402755,502.6051777261901,71
2025-05-18 12:55:21.824878,0.1812840389657838,-1.0328039929437935,0.7272669099095163,458.74406725288657,73
2025-05-18 12:55:21.834879,0.2257563486369146,-1.0034257045726445,0.6905440818947456,481.6644248838186,71
2025-05-18 12:55:21.844880,0.2222522656899748,-1.034482225078563,0.7290089147868357,456.75581051868147,71
2025-05-18 12:55:21.854881,0.21283730989453176,-1.0477126131893466,0.707752507713729,455.91590795698255,72
2025-05-18 12:55:21.864882,0.23515678065519113,-1.0558392211715695,0.701793771913484,402.04511144721306,71
2025-05-18 12:55:21.874883,0.23909198694101166,-1.0689570832102822,0.7335516552822916,428.6506281475837,73
2025-05-18 12:55:21.884884,0.2279688772666575,-1.1060962408684383,0.7227520878239487,399.9107570205209,70
2025-05-18 12:55:21.894885,0.2666531241656448,-1.0790693638773168,0.7094417353140591,389.0505876327304,74
2025-05-18 12:55:21.904886,0.2512754727292033,-1.0655314275683596,0.7206254549214226,388.4661061073431,70
2025-05-18 12:55:21.914887,0.27067222776127725,-1.0996377141934173,0.7689598831070864,381.04324270050034,70
2025-05-18 12:55:21.924888,0.2839590350546963,-1.0980794251483788,0.7677580413594114,322.00807543517027,71
2025-05-18 12:55:21.934890,0.24947121608521855,-1.115650532092954,0.7441620812617543,314.4467606686725,71
2025-05-18 12:55:21.944891,0.29159303093537636,-1.1151889048551271,0.7832646782814254,299.9963485049356,72
2025-05-18 12:55:21.954892,0.25018081477880516,-1.1257318685586168,0.792751517186135,296.96315033308946,74
2025-05-18 12:55:21.964893,0.28318849478479263,-1.1617341722257681,0.7836123327360597,321.2809710522409,71
2025-05-18 12:55:21.974894,0.27576780303058124,-1.1464998220014573,0.7922675809627298,301.14280373927585,74
2025-05-18 12:55:21.984895,0.30972852215592445,-1.1567025465027216,0.7948995541288826,280.50863557932826,74
2025-05-18 12:55:21.994896,0.2863267551105792,-1.1724808269329148,0.8323741896752516,277.26934357612424,72
2025-05-18 12:55:22.004897,0.2967596640583072,-1.1599018738165934,0.8282292489897943,302.822733514473,71
2025-05-18 12:55:22.014898,0.3154794020856294,-1.1568828680370649,0.7976753195969997,347.6014822859509,72
2025-05-18 12:55:22.024900,0.2854515231032917,-1.161448621292004,0.8069855362317399,337.5074341743926,72
2025-05-18 12:55:22.034901,0.30462200371628695,-1.155942698607796,0.8239161734168916,335.9097480427348,72
2025-05-18 12:55:22.044902,0.30954046051181483,-1.1688503650979318,0.8596752730359122,357.758135103362,72
2025-05-18 12:55:22.054903,0.25772600536723805,-1.1534549857144982,0.8814502830668768,373.0064166952739,72
2025-05-18 12:55:22.064904,0.28600268953480595,-1.1820474512365398,0.8805357549882509,413.5220510741234,73
2025-05-18 12:55:22.074905,0.27618831209465017,-1.1845063971036247,0.8523682672601429,405.75065626228394,71
2025-05-18 12:55:22.084906,0.3163544656257332,-1.1453114545852148,0.8697082872240125,448.16656440936947,71
2025-05-18 12:55:22.094907,0.3214324516960412,-1.2123658719433739,0.8534251097431789,451.95525042394786,72
2025-05-18 12:55:22.104908,0.30045518578765895,-1.1917226914624,0.8701095644385505,468.7161987957717,74
2025-05-18 12:55:22.114910,0.2945127151327238,-1.2003118568302247,0.8719037234684645,442.6098570275282,72
2025-05-18 12:55:22.124911,0.27480125381049664,-1.1961985256011956,0.8577422768348422,472.9669009135323,74
2025-05-18 12:55:22.134912,0.2706517441298788,-1.224333206363182,0.8615181590334104,484.6537014235934,72
2025-05-18 12:55:22.144913,0.24865946221808743,-1.1952594667181196,0.8800945544601186,491.2459801928754,73
2025-05-18 12:55:22.154914,0.2760465878270445,-1.2176185603875274,0.8852616152825745,501.42175637327716,74
2025-05-18 12:55:22.164915,0.2706856393424174,-1.1790697734685958,0.9329664692819859,523.4369346874456,70
2025-05-18 12:55:22.174916,0.2711868434371478,-1.197197853545843,0.9119776829892294,506.56094397872647,74
2025-05-18 12:55:22.184917,0.28816818455848364,-1.2170819249751037,0.86312662307707,489.3908078397878,73
2025-05-18 12:55:22.194918,0.2884194617755464,-1.1875510619603442,0.9078894343145426,509.42063001612695,72
2025-05-18 12:55:22.204919,0.23296256518173836,-1.2352071364470736,0.9070110176663597,516.2299482233873,73
2025-05-18 12:55:22.214921,0.24416725915855822,-1.2148815297956863,0.9283467386430521,520.426295428377,72
2025-05-18 12:55:22.224922,0.26551952456018446,-1.2055808337690903,0.8866315584071559,527.712936086194,74
2025-05-18 12:55:22.234923,0.2612027771388687,-1.1962304996500348,0.9231689366350613,524.8197401007616,74
2025-05-18 12:55:22.244924,0.24066721386231923,-1.2081638140330504,0.926087493299188,500.12269487365415,70
2025-05-18 12:55:22.254925,0.22232627442380998,-1.1832497249168825,0.8914916888672881,529.9527644578782,74
2025-05-18 12:55:22.264926,0.24392649968052868,-1.199055121076874,0.8857932815402948,524.6533351754157,70
2025-05-18 12:55:22.274927,0.23867551142824056,-1.2014138107362125,0.905161096714101,564.6392554432834,72
2025-05-18 12:55:22.284928,0.22624998960393056,-1.2115669608765463,0.8906303330530124,569.8214026426466,70
2025-05-18 12:55:22.294930,0.22166168522927585,-1.185506321818302,0.8378169371541601,572.7132015562197,74
2025-05-18 12:55:22.304931,0.21938961251195985,-1.1659910682042665,0.8694777305239898,623.0763122427601,70
2025-05-18 12:55:22.314932,0.22879851521316594,-1.138722340854961,0.8502730528157322,645.950455296221,74
2025-05-18 12:55:22.324933,0.2008606360441033,-1.180689613914377,0.8328692375887654,610.3001062036262,71
2025-05-18 12:55:22.334934,0.22067687303600048,-1.1605121945149712,0.8124199825854546,645.995318491058,73
2025-05-18 12:55:22.344935,0.1811207048626317,-1.161164889016245,0.8317023798109627,682.3726850976652,73
2025-05-18 12:55:22.354936,0.1541925342923191,-1.1503060462116055,0.84330564455942,711.5207902122252,70
2025-05-18 12:55:22.364937,0.16221765933674545,-1.1526397923868394,0.8275904929878605,686.8960123732297,72
2025-05-18 12:55:22.374939,0.12595480379849094,-1.1491530510151662,0.7586143546628926,695.933307469975,74
2025-05-18 12:55:22.384940,0.1560197505626426,-1.12400857252538,0.799828726491616,711.4654961678173,70
2025-05-18 12:55:22.394941,0.1273801930469406,-1.1445072336126974,0.7561051709459929,698.9692653131266,73
2025-05-18 12:55:22.404942,0.11363273478778198,-1.136075902546496,0.7854441616259011,730.742207930826,72
2025-05-18 12:55:22.414943,0.09142103979270436,-1.1270919306337954,0.7518567748649941,710.9026297659296,72
2025-05-18 12:55:22.424944,0.12065739380637303,-1.0844183314802531,0.7630119844992457,694.3377893294562,70
2025-05-18 12:55:22.434945,0.12129427302139065,-1.1316866672273027,0.7706010485827375,702.6608226131395,72
2025-05-18 12:55:22.444947,0.08490452892381435,-1.1058071590008776,0.7488217501533851,663.8294601969566,70
2025-05-18 12:55:22.454948,0.06588636375520655,-1.1058868204709504,0.7364624900857673,661.3787924196465,72
2025-05-18 12:55:22.464949,0.032195170485035535,-1.0966357644740656,0.7364801097189289,658.4611559759242,74
2025-05-18 12:55:22.474950,0.05153044012343573,-1.0945924270484662,0.725467804329404,602.7196103468564,71
2025-05-18 12:55:22.484951,0.06670631289599942,-1.093256213967653,0.7684577963937864,584.0787230641628,72
2025-05-18 12:55:22.494952,0.09846713264688456,-1.0934892654973087,0.7261348110309283,583.6707078828643,73
2025-05-18 12:55:22.504953,0.04868267017446426,-1.0704951704625008,0.7058221369383768,563.5020907608176,71
2025-05-18 12:55:22.514954,0.05102606002447985,-1.082230683698705,0.6796439598888043,555.3423881175249,70
2025-05-18 12:55:22.524955,0.035698516481368216,-1.0473681910445458,0.7085215791470438,523.3536828205723,71
2025-05-18 12:55:22.534956,0.02425472288098814,-1.021370050885811,0.7115353083481678,529.5328110206744,71
2025-05-18 12:55:22.544957,0.021417263005448987,-1.0294187329557705,0.7051699905942951,501.2468963467395,72
2025-05-18 12:55:22.554959,-0.0028453394574690693,-1.0078394416569116,0.724438857315015,521.6205266375505,70
2025-05-18 12:55:22.564960,-0.025681977485870543,-0.9907349521247738,0.6858501297478886,494.2389022921901,70
2025-05-18 12:55:22.574961,0.011769712737492184,-0.9540621649935954,0.6835567557647055,504.450225447859,74
2025-05-18 12:55:22.584962,-0.0033536105219276746,-0.9503855839131652,0.719498820045877,507.3025041213779,70
2025-05-18 12:55:22.594963,-0.02595114709901038,-0.9715864481125239,0.7198378851258534,488.34103235313376,72
2025-05-18 12:55:22.604964,-0.06892434181235035,-0.9821894138622748,0.6841814967827984,522.7150926036944,72
2025-05-18 12:55:22.614965,-0.030585360613831068,-0.9825208901909592,0.6829136406389921,518.8429557878069,73
2025-05-18 12:55:22.624966,-0.06125045862134405,-0.969076550424986,0.7067618087137842,511.0638047239138,74
2025-05-18 12:55:22.634967,-0.011620710138317267,-0.940340283851298,0.7315175225270514,475.3898964620622,73
2025-05-18 12:55:22.644968,-0.06214586478873257,-0.9532381266018833,0.7077394888461286,497.45474440877797,70
2025-05-18 12:55:22.654970,-0.0805917414737326,-0.9614615417975517,0.7267098347313184,472.59952796546133,71
2025-05-18 12:55:22.664971,-0.04306149373077183,-0.9072626494321943,0.7266376090046569,477.1900275842499,71
2025-05-18 12:55:22.674972,-0.06645302068946457,-0.899881596008514,0.7259512396309965,438.10698490904474,71
2025-05-18 12:55:22.684973,-0.08643266847082749,-0.912578145382044,0.7172989384221644,461.92221414181927,70
2025-05-18 12:55:22.694974,-0.07286869061354062,-0.8628664136221557,0.7111395102462188,445.4106996735834,73
2025-05-18 12:55:22.704975,-0.09144851875476975,-0.8492736855176906,0.7623059372335836,459.51790223317755,72
2025-05-18 12:55:22.714976,-0.09636531770443557,-0.8678476708680419,0.7611335774390093,407.80447359666357,74
2025-05-18 12:55:22.724977,-0.1248050378331337,-0.8885389172231337,0.7344923755992476,411.01128803321745,74
2025-05-18 12:55:22.734978,-0.08817863339116493,-0.8171727821269341,0.7768772033124802,373.6063308830331,73
2025-05-18 12:55:22.744980,-0.12177692916913557,-0.870476744844694,0.7631597192843167,346.960379435625,72
2025-05-18 12:55:22.754981,-0.09608551033986226,-0.8339444145019617,0.7949683491189434,327.8926082321649,74
2025-05-18 12:55:22.764982,-0.08739878022398534,-0.7981866387016818,0.7259149797446136,329.04289303094924,71
2025-05-18 12:55:22.774983,-0.0639329840155458,-0.8161515924194478,0.7942473359617143,315.04491614073976,74
2025-05-18 12:55:22.784984,-0.08077085578522296,-0.8014287031083218,0.7725968411746107,323.67709665027036,71
2025-05-18 12:55:22.794985,-0.07168445875478253,-0.8092179154932406,0.7946701324554548,262.86367058737557,70
2025-05-18 12:55:22.804986,-0.14696471899210994,-0.7518178595659942,0.8219046686178263,304.60758357495195,72
2025-05-18 12:55:22.814987,-0.09839440538594788,-0.78261717089204,0.8122463671937986,291.0370366513885,73
2025-05-18 12:55:22.824988,-0.08267017508013712,-0.754656209917283,0.8022301584878769,293.3466415774906,73
2025-05-18 12:55:22.834990,-0.12056151600537035,-0.7362502492151136,0.8424930060345845,333.07115970304204,70
2025-05-18 12:55:22.844991,-0.092171476680404,-0.7624760678830125,0.8572232976977745,320.36721929604244,73
2025-05-18 12:55:22.854992,-0.09877267339201437,-0.6975985082473116,0.8822586612794764,323.1223834898078,71
2025-05-18 12:55:22.864993,-0.12956139931200147,-0.7654073787259933,0.8111256877215227,319.6622979141049,72
2025-05-18 12:55:22.874994,-0.12177969046732545,-0.7166229077496635,0.8697986559140766,342.16277134426383,73
2025-05-18 12:55:22.884995,-0.09509521654026724,-0.748720928483777,0.9052563333307596,384.86679093048633,74
2025-05-18 12:55:22.894996,-0.07617925760416959,-0.7188702918319597,0.8939605848567592,403.76950279118597,72
2025-05-18 12:55:22.904997,-0.042095621529953636,-0.7263273366145776,0.9323742343590881,426.76576008158725,74
2025-05-18 12:55:22.914998,-0.07844226237747019,-0.7128879349352399,0.8655643853458201,425.7416758583987,74
2025-05-18 12:55:22.924999,-0.06922204644555427,-0.6442518808197862,0.8920291608124852,426.2317290747232,74
2025-05-18 12:55:22.935001,-0.09155849227639122,-0.6916336314782963,0.9184311884338111,455.8979342930601,73
2025-05-18 12:55:22.945002,-0.06031298136381845,-0.6739928316790641,0.8697724838848363,450.60315768276337,72
2025-05-18 12:55:22.955003,-0.07943542146182356,-0.6615667578812549,0.8922277687401398,479.31474968509747,74
2025-05-18 12:55:22.965004,-0.031149840004002748,-0.6650646292743775,0.8931318367822653,503.6301417635887,70
2025-05-18 12:55:22.975005,-0.05699784556151839,-0.6250431252839914,0.8816369104848959,502.4940936557022,71
2025-05-18 12:55:22.985006,-0.0387488024482012,-0.6927620425754831,0.9239449783244927,486.45354810147114,72
2025-05-18 12:55:22.995007,-0.015446780812807252,-0.6157683012658609,0.904883699164781,496.0138535621111,71
2025-05-18 12:55:23.005008,-0.07409213831141132,-0.6527180199804519,0.8853762612863697,508.49141061295114,73
2025-05-18 12:55:23.015009,-0.030781218459710477,-0.6301808433609075,0.8625901717644756,512.1587925285287,73
2025-05-18 12:55:23.025010,-0.016624328141166697,-0.676293359390358,0.9330217388768663,486.5801571852962,73
2025-05-18 12:55:23.035012,-0.020783560593655305,-0.6141879456580023,0.9069416725633185,508.448441385011,74
2025-05-18 12:55:23.045013,0.0007620544380950705,-0.5891604941675299,0.8693794652266179,502.3715673425537,72
2025-05-18 12:55:23.055014,0.029289219072953003,-0.6316854349511177,0.8979509380929056,486.66615528049647,74
2025-05-18 12:55:23.065015,0.009348261933501748,-0.5924175027149725,0.8733548939120183,485.9227522500566,74
2025-05-18 12:55:23.075016,0.024921758832553226,-0.6323645178831273,0.8940919668424502,514.1940303567354,74
2025-05-18 12:55:23.085017,-0.029134153977570347,-0.6107274314697139,0.9033241819850935,518.3765820954642,71
2025-05-18 12:55:23.095018,0.01924822628484143,-0.6493252707468646,0.8630747787888302,534.8766561575399,74
2025-05-18 12:55:23.105019,0.04225476820775416,-0.6191944112214783,0.8358365708110482,532.352279601182,74
2025-05-18 12:55:23.115020,-0.0352599059345428,-0.5972509315392875,0.8250350586142833,574.0781632680246,71
2025-05-18 12:55:23.125022,0.05622130648326486,-0.6162463377068166,0.8441612344773982,579.2459340776962,71
2025-05-18 12:55:23.135023,0.026115084885525955,-0.6162308871862977,0.8377056532634656,602.136645345409,70
2025-05-18 12:55:23.145024,0.06436540347528914,-0.6477921847690054,0.8436432300715421,613.9743676694001,71
2025-05-18 12:55:23.155025,0.03778368706536493,-0.6047864436646647,0.8464023265997765,635.217070932371,71
2025-05-18 12:55:23.165026,0.07939609573617243,-0.6155111352146677,0.8670739755852734,656.5166877734474,70
2025-05-18 12:55:23.175027,0.055456163784386295,-0.6029167830992719,0.8172765013869422,653.6689558064,71
2025-05-18 12:55:23.185028,0.06736015213857968,-0.6436290089046142,0.8336908989301511,646.014184925865,73
2025-05-18 12:55:23.195029,0.06657482299540252,-0.5753012586979163,0.812708151648441,697.6260069196978,70
2025-05-18 12:55:23.205031,0.11394905047060178,-0.5789376234203502,0.7775477054706835,682.3436717145573,71
2025-05-18 12:55:23.215032,0.16290890245101586,-0.6322046721024595,0.7841131829759198,701.0298719911152,73
2025-05-18 12:55:23.225033,0.15920584127806378,-0.5688941890987483,0.7749753626574043,712.4260331325992,70
2025-05-18 12:55:23.235034,0.14749830345140133,-0.6270264364971543,0.7903275494923351,700.4758756245802,73
2025-05-18 12:55:23.245035,0.14541604803495273,-0.5992260688464647,0.7634190635897324,679.4958864277831,72
2025-05-18 12:55:23.255036,0.15196852734773608,-0.5768807906380337,0.716539276107846,693.9499793987318,74
2025-05-18 12:55:23.265037,0.1857233503719785,-0.5994644770374686,0.7190441520890498,692.2964855292834,72
2025-05-18 12:55:23.275038,0.1917965440325226,-0.5875252511087565,0.7348042081682932,680.9014492846709,72
2025-05-18 12:55:23.285039,0.18779691661732503,-0.6013148895104897,0.7556428064731897,655.3090233976977,72
2025-05-18 12:55:23.295041,0.19794311511848348,-0.6013157563914723,0.7027317201100156,646.2207279377412,72
2025-05-18 12:55:23.305042,0.22710154563808538,-0.6421161742877071,0.7189744466254419,628.5855955109723,70
2025-05-18 12:55:23.315043,0.18309196359308944,-0.6482225743859595,0.7092526306476973,606.5677855785408,71
2025-05-18 12:55:23.325047,0.2535067600403292,-0.6279297087379747,0.7317750643703074,595.7009203411201,71
2025-05-18 12:55:23.335049,0.2097995555944593,-0.594626825494883,0.7188189935442151,551.8555380866012,74
2025-05-18 12:55:23.345050,0.2584882813925772,-0.5923308811031798,0.7161954889430595,527.2103262136399,70
2025-05-18 12:55:23.355051,0.23684418417571662,-0.6395945084446295,0.6942466510331639,526.5706732884411,74
2025-05-18 12:55:23.365052,0.2047940239565754,-0.6400912442048523,0.6866211242570979,510.8469660652232,70
2025-05-18 12:55:23.375053,0.23012778803918105,-0.637100678172008,0.741121003125289,522.4584251914166,73
2025-05-18 12:55:23.385054,0.2642167981419299,-0.6560357832820457,0.6752774111962552,534.1007372621506,72
2025-05-18 12:55:23.395055,0.2804744661303089,-0.6843157503354881,0.7083979252253462,489.1423146288218,73
2025-05-18 12:55:23.405056,0.2616589496496564,-0.6905521633147373,0.7317700705166765,497.69726228236476,70
2025-05-18 12:55:23.415058,0.2515430066614495,-0.671915010722993,0.722285909444349,514.10089737604,70
2025-05-18 12:55:23.425059,0.2841510097751796,-0.6371217668158047,0.7005431349845229,509.1412354274747,71
2025-05-18 12:55:23.435060,0.27171795722630265,-0.6928905797992968,0.7119357536606663,499.0129360388935,72
2025-05-18 12:55:23.445061,0.2794330793339679,-0.6942513404836798,0.7116990061599586,502.43807867546724,74
2025-05-18 12:55:23.455062,0.306632037841667,-0.6752743770157813,0.7518462520269685,503.2403271913843,70
2025-05-18 12:55:23.465063,0.3022128309115145,-0.7090090065063651,0.7605429343745961,468.19833179338025,71
2025-05-18 12:55:23.475064,0.26809232436033514,-0.7072195480702878,0.6688196154678072,503.510334701277,70
2025-05-18 12:55:23.485065,0.2843377982050959,-0.7341204992750017,0.7164199403723883,492.748339604356,73
2025-05-18 12:55:23.495066,0.2762372567122934,-0.7331485793631288,0.7344572623938846,461.639557951848,70
2025-05-18 12:55:23.505067,0.2756662153667585,-0.7352683407118293,0.7382073374332432,491.695213115875,72
2025-05-18 12:55:23.515069,0.3062279447113521,-0.7682644686470773,0.7525758047014877,469.45825360282356,72
2025-05-18 12:55:23.525070,0.34004587762711763,-0.7602708146869437,0.7422247976671352,449.84855371165025,72
2025-05-18 12:55:23.535071,0.32150240896317506,-0.7624103019989559,0.7498174986212987,440.37529103639514,70
2025-05-18 12:55:23.545072,0.31184761815103207,-0.7973490676378903,0.7902519705922635,404.35543108049865,74
2025-05-18 12:55:23.555073,0.306429358181198,-0.7615338722909439,0.7864542611423154,398.8055007029592,71
2025-05-18 12:55:23.565074,0.3058532453655558,-0.786645847501279,0.7952648632762428,405.0026792436342,71
2025-05-18 12:55:23.575075,0.32603789355708074,-0.7929334637222386,0.8022703611536269,338.56061335912915,72
2025-05-18 12:55:23.585076,0.29495826914181356,-0.8257387370756328,0.8055320380681571,349.1202150510328,74
2025-05-18 12:55:23.595078,0.29296142509088713,-0.817891765569138,0.8086237495688754,317.35220501633904,70
2025-05-18 12:55:23.605079,0.28710860295293295,-0.8083755562788613,0.7622400205847195,296.63709674439554,70
2025-05-18 12:55:23.615080,0.3094078959630116,-0.8315948265043656,0.8226731755033257,317.9360791381622,71
2025-05-18 12:55:23.625081,0.27903133272229613,-0.852395164976466,0.8165863167917121,303.69123976830707,70
2025-05-18 12:55:23.635082,0.2762292173111208,-0.8494276629001503,0.8598121910542148,283.48791579123304,72
2025-05-18 12:55:23.645083,0.28447259538490516,-0.863586893808213,0.848458407240677,279.7267447094082,71
2025-05-18 12:55:23.655084,0.27453481963622595,-0.8875439046928181,0.8663735451971328,273.8627966201854,73
2025-05-18 12:55:23.665085,0.29963183254428977,-0.9312677323098635,0.8974053105847749,311.19795570572296,70
2025-05-18 12:55:23.675086,0.297867796383458,-0.8701783687677448,0.851103973295176,312.54029038301854,74
2025-05-18 12:55:23.685088,0.3158295341097721,-0.8826784666567609,0.8834785046669748,305.16953624836833,73
2025-05-18 12:55:23.695089,0.2721773640340224,-0.9148888679115411,0.8860896860178161,355.3157568817839,74
2025-05-18 12:55:23.705090,0.2497361206704886,-0.952340153790203,0.8667894770927383,341.3562223003402,73
2025-05-18 12:55:23.715091,0.2875897000223848,-0.9419772876753071,0.8750356943976941,358.33415935139016,70
2025-05-18 12:55:23.725092,0.2554561244714673,-0.9480765270126617,0.9133620014129155,365.71922988459954,73
2025-05-18 12:55:23.735093,0.22788279159148972,-0.9736009342707197,0.8696918230806555,414.92846796569467,71
2025-05-18 12:55:23.745094,0.2541183048354338,-0.9469344413147189,0.9036053129569314,391.0328720679117,71
2025-05-18 12:55:23.755095,0.26821611418945596,-0.971062720716643,0.9268363294662206,431.07041631696495,70
2025-05-18 12:55:23.765096,0.20016371911062367,-0.9715603561472373,0.9138600102191363,441.73716405224485,73
2025-05-18 12:55:23.775097,0.21569321355137533,-0.986922738242646,0.881927413602478,436.2143209753723,72
2025-05-18 12:55:23.785098,0.2238388707611839,-1.0085891007765428,0.9271847514979199,461.858775238624,74
2025-05-18 12:55:23.795100,0.22182039964921843,-1.0074251967517966,0.887143544937415,486.7149560765218,71
2025-05-18 12:55:23.805101,0.20392244066992152,-1.0050788177373775,0.9210902123892385,459.1380456609048,73
2025-05-18 12:55:23.815102,0.2130135349800964,-1.027699690398558,0.8887455504106548,461.0885540563744,72
2025-05-18 12:55:23.825103,0.16961173275165273,-1.0370143407904384,0.847772318069247,510.7208283837522,70
2025-05-18 12:55:23.835104,0.18680828630158422,-1.082017022408987,0.9007046690742518,495.6415288370059,71
2025-05-18 12:55:23.845105,0.1615684477296206,-1.021650464914712,0.8986059586965636,508.29799019307086,74
2025-05-18 12:55:23.855106,0.1552252599467641,-1.05335998142423,0.8759125172501484,506.77416178460356,71
2025-05-18 12:55:23.865107,0.1365133628738195,-1.078055864032839,0.8691893479760833,493.78957816385133,73
2025-05-18 12:55:23.875108,0.18072004500837413,-1.1024092367289606,0.831577335199153,479.5172357530929,71
2025-05-18 12:55:23.885110,0.13648075733447784,-1.069188713217685,0.8501745849206047,507.11364224417304,73
2025-05-18 12:55:23.895111,0.16574873741531584,-1.0992329808983254,0.8492231975058608,479.21423726557316,70
2025-05-18 12:55:23.905112,0.1529668232580205,-1.1028619690037964,0.8797967629582848,499.7659109573914,71
2025-05-18 12:55:23.915113,0.12324426795363952,-1.0858046731773925,0.8190974730614066,521.192320309333,73
2025-05-18 12:55:23.925114,0.10969061012876916,-1.104781040059666,0.8529857819311258,541.8283925304901,72
2025-05-18 12:55:23.935115,0.09723500132114622,-1.134983472525306,0.8235687507605001,556.1910832309428,71
2025-05-18 12:55:23.945116,0.0737216117251393,-1.112393801650205,0.8319940172249674,565.3060581579814,71
2025-05-18 12:55:23.955117,0.045716567986193286,-1.1201791228589753,0.8266237409950316,569.2210642644555,71
2025-05-18 12:55:23.965119,0.08073479188718774,-1.1075121674420796,0.7871771505588873,574.6729986891229,70
2025-05-18 12:55:23.975120,0.06930078561742398,-1.0968827828084247,0.8159979382677546,613.735978483466,71
2025-05-18 12:55:23.985121,0.07038116522848142,-1.167860981117828,0.8247132756570039,618.3458487128246,73
2025-05-18 12:55:23.995122,0.08234647175381782,-1.1547391405288505,0.7804887778199645,652.2684566505594,73
2025-05-18 12:55:24.005123,0.03848598452749001,-1.1681535729280859,0.7596562501268709,674.7145740993693,73
2025-05-18 12:55:24.015124,0.001043056455963677,-1.170114346748547,0.7593938244189274,670.2637185190932,70
2025-05-18 12:55:24.025125,0.02573203824730661,-1.1701512847940039,0.7944318096714253,702.6577447567918,73
2025-05-18 12:55:24.035126,0.02284143881606987,-1.1591522488929948,0.7549428194802331,701.6466256468608,73
2025-05-18 12:55:24.045127,0.003248931859480615,-1.1840780213623832,0.7635390308404498,713.9833684544351,73
2025-05-18 12:55:24.055129,0.019695684954298322,-1.1886401535926556,0.7298407106101227,692.7443155880688,72
2025-05-18 12:55:24.065130,-0.032465648304731816,-1.1868679933326505,0.7636783445095133,679.4558028071995,71
2025-05-18 12:55:24.075131,-0.013755476080812143,-1.1722111679201086,0.7205269798744918,708.7807842712989,70
2025-05-18 12:55:24.085132,-0.0392325367332898,-1.1905176861948499,0.7341371358391998,686.0426089224668,71
2025-05-18 12:55:24.095133,-0.008754220890669628,-1.213082332040522,0.7337546941283138,702.4076201415287,74
2025-05-18 12:55:24.105134,-0.07554594666309089,-1.1761059271830092,0.7670902558350299,682.5574775650372,73
2025-05-18 12:55:24.115135,-0.06004278770567616,-1.1787716971221642,0.739695777521775,666.9350306916381,70
2025-05-18 12:55:24.125136,-0.00788554675965479,-1.1911960199024592,0.755121994584455,669.0571044777599,74
2025-05-18 12:55:24.135137,-0.064982413662559,-1.1964669616839807,0.706819959400182,611.1417407586903,73
2025-05-18 12:55:24.145139,-0.04576641660516228,-1.1942500368450342,0.7079105263917426,625.9599443051219,71
2025-05-18 12:55:24.155140,-0.05129178470616829,-1.1633780737230108,0.6869622823566605,595.5707012826117,72
2025-05-18 12:55:24.165141,-0.0480987121601098,-1.1766707206879918,0.7396266902459673,554.0079524255107,73
2025-05-18 12:55:24.175142,-0.09023789429236857,-1.2176328137698553,0.6918034193842054,559.9477006134974,70
2025-05-18 12:55:24.185143,-0.02782199129178059,-1.2213968271453006,0.6791228356624068,544.4551027127945,72
2025-05-18 12:55:24.195144,-0.03976821981386335,-1.2004041723551928,0.6947147258663096,492.3041858319303,72
2025-05-18 12:55:24.205145,-0.05814048201085789,-1.1523878762528137,0.6751794544818127,532.4404047581387,73
2025-05-18 12:55:24.215146,-0.08118525579035796,-1.161168229429667,0.7207816746149948,518.0091855829531,74
2025-05-18 12:55:24.225148,-0.061868501313648364,-1.1442695142753176,0.7571630642475498,506.14617504217216,72
2025-05-18 12:55:24.235149,-0.11185566002249614,-1.1545194467348536,0.709737998807525,487.1880332656888,73
2025-05-18 12:55:24.245150,-0.08469107748473359,-1.2126109676871042,0.7110205530058813,505.7826857641222,74
2025-05-18 12:55:24.255151,-0.07657533052770822,-1.1671321190469397,0.7405722047123141,526.9654256706978,74
2025-05-18 12:55:24.265152,-0.08375984284447681,-1.212216143643678,0.6800822698429673,506.0004801212847,74
2025-05-18 12:55:24.275153,-0.13526614931192052,-1.1863535865518477,0.7547389596884019,491.2931733584504,73
2025-05-18 12:55:24.285154,-0.10226694462509456,-1.1901273185810732,0.7061055308441755,503.4921856412319,70
2025-05-18 12:55:24.295155,-0.13842059403223403,-1.2211086715800308,0.743882770129422,504.38100269929936,73
2025-05-18 12:55:24.305156,-0.09584990358704137,-1.1777930635564686,0.7426826405754166,498.6797560839134,74
2025-05-18 12:55:24.315158,-0.12415724259492801,-1.170539697388457,0.7422524552390931,495.28830639558646,71
2025-05-18 12:55:24.325159,-0.10131309605475013,-1.1414762960555302,0.775264805823196,508.4451501750227,73
2025-05-18 12:55:24.335160,-0.09542785875398728,-1.1958554945476183,0.7860951710547652,464.77682906242393,73
2025-05-18 12:55:24.345161,-0.12846004675057213,-1.1915077613690555,0.7943692591898106,454.2110359543474,71
2025-05-18 12:55:24.355162,-0.0924978230154614,-1.1459914499683062,0.7256533225940195,466.4567443810887,74
2025-05-18 12:55:24.365163,-0.07220282713358576,-1.15733793620188,0.784042495250308,472.518099025086,70
2025-05-18 12:55:24.375164,-0.12057099622536427,-1.1764789842073107,0.815475816772328,398.58272964779553,73
2025-05-18 12:55:24.385165,-0.07660684182574629,-1.1559560833805953,0.7850554039643967,412.3725115390629,72
2025-05-18 12:55:24.395166,-0.07471142436812796,-1.1133989715663815,0.7971735910893313,375.2179701922106,72
2025-05-18 12:55:24.405168,-0.12669745472916122,-1.1169987868813138,0.784763320998262,360.62605703600997,74
2025-05-18 12:55:24.415169,-0.11373596215746923,-1.1354333129351386,0.8614549393461748,346.07125885700987,74
2025-05-18 12:55:24.425170,-0.06374207966859237,-1.1366380048497808,0.8358337957099393,318.22659035275944,73
2025-05-18 12:55:24.435171,-0.022779893604519333,-1.0816352635506365,0.7760682985821356,329.06767700105934,73
2025-05-18 12:55:24.445172,-0.11165201058613991,-1.12787896129173,0.7980883189479174,309.98148648942475,71
2025-05-18 12:55:24.455173,-0.05658623508115413,-1.1133835857183663,0.8265470200720119,297.4241971029024,73
2025-05-18 12:55:24.465174,-0.05245978611598399,-1.0994291285136062,0.8515911006439191,273.1069351044809,74
2025-05-18 12:55:24.475176,-0.023089293171754132,-1.0795324328412195,0.8837036090594367,295.1527616012393,71
2025-05-18 12:55:24.485177,-0.07313629616794734,-1.0675359126538195,0.8689096362047164,296.5802697073469,71
2025-05-18 12:55:24.495178,-0.04020314429322821,-1.0699068397725644,0.8916516758031224,299.3079728499418,74
2025-05-18 12:55:24.505179,-0.030562401331060588,-1.0457005525215068,0.858522640712995,309.22022619114296,72
2025-05-18 12:55:24.515180,-0.018404446735255185,-1.0612101245232413,0.8438700650761323,287.4228510651708,73
2025-05-18 12:55:24.525181,-0.028070816480403854,-1.0716181396835065,0.8779414547566554,335.6280290186992,72
2025-05-18 12:55:24.535182,-0.04364896286964873,-1.045477344223451,0.8765725848563967,357.3306823109854,72
2025-05-18 12:55:24.545184,-0.011812174970051376,-1.0627758865449488,0.8905548515749744,362.63970947287936,72
2025-05-18 12:55:24.555185,-0.020637315124882503,-1.0181660386068787,0.8974678474938069,398.32877066848926,70
2025-05-18 12:55:24.565186,-0.026369540623737732,-1.0257369018682734,0.9128470478993356,427.9137692964839,71
2025-05-18 12:55:24.575187,-0.0019078538884666346,-0.9752844734182107,0.8906391471522809,423.91326062428556,71
2025-05-18 12:55:24.585188,0.00801705160443258,-1.0272242852969358,0.8949676048201214,457.99388860224735,74
2025-05-18 12:55:24.595189,0.025468874475921194,-0.958104337883102,0.8912528679677026,455.5131642193218,72
2025-05-18 12:55:24.605190,0.01791897398191236,-0.9604811086291106,0.8704425461896569,460.45012715035415,72
2025-05-18 12:55:24.615191,0.02214648926033386,-0.98909025398156,0.8514819509914462,457.5206508117561,72
2025-05-18 12:55:24.625192,0.0036933038427801393,-0.95834758401868,0.8806453723269612,486.1712032315129,72
2025-05-18 12:55:24.635193,0.03682933213282591,-0.9790515888039635,0.9194056543829239,524.3299364769466,74
2025-05-18 12:55:24.645195,0.07334835164276232,-0.9912479946587671,0.869413523028923,476.50884448475244,70
2025-05-18 12:55:24.655196,0.06644794712733076,-0.930501956886256,0.8947387160895397,514.816587632617,74
2025-05-18 12:55:24.665197,0.06124233110790414,-0.9080814877626588,0.8685135334816853,503.37722973078553,74
2025-05-18 12:55:24.675198,0.09161216399238183,-0.9006806085509282,0.8746005544635578,504.42925311157995,71
2025-05-18 12:55:24.685199,0.06692844425787567,-0.8740453515482294,0.8626087120009958,494.95469307973326,71
2025-05-18 12:55:24.695200,0.14112638103494918,-0.8711879136248595,0.8911248158629618,494.89826825893834,73
2025-05-18 12:55:24.705201,0.07842913917542742,-0.890733443905181,0.8734261718553472,475.3244064229975,74
2025-05-18 12:55:24.715202,0.13244243205282905,-0.8413566970807886,0.8041504643462435,491.68160496902567,70
2025-05-18 12:55:24.725203,0.1423073117360246,-0.8306968596503964,0.8515082816841638,529.823834847579,71
2025-05-18 12:55:24.735204,0.17389749586381364,-0.8805901938861287,0.902879128268429,501.3902805065772,74
2025-05-18 12:55:24.745206,0.15349049389155445,-0.8756863168751589,0.8411425588539209,512.5638936428956,72
2025-05-18 12:55:24.755207,0.17731365301896737,-0.8280429781099009,0.8349362153166592,519.0957541794022,71
2025-05-18 12:55:24.765208,0.14710746119689727,-0.8252166890313308,0.799016664470195,549.0656818125583,70
2025-05-18 12:55:24.775209,0.1664748904723814,-0.8035257931584743,0.786358555816346,527.3193666234429,72
2025-05-18 12:55:24.785210,0.188292408955112,-0.7779484254962088,0.7880034520073843,590.6809735905455,70
2025-05-18 12:55:24.795212,0.17545463680962123,-0.8008465876290087,0.7723494123633827,592.536533306378,73
2025-05-18 12:55:24.805213,0.19659753901243468,-0.8219259919972164,0.7900954198364092,608.688989381149,72
2025-05-18 12:55:24.815214,0.16880528305419945,-0.7842024308756521,0.7892943341985551,599.1765777036674,71
2025-05-18 12:55:24.825215,0.21890263120321254,-0.7461169980621871,0.7225079685437158,640.9260171481023,72
2025-05-18 12:55:24.835216,0.29381595950177614,-0.7799357249839054,0.781810294924384,649.7862226634484,74
2025-05-18 12:55:24.845217,0.22727705330772718,-0.7563927945817206,0.737973295962598,673.3959112022402,73
2025-05-18 12:55:24.855218,0.2180174980053064,-0.738693805459544,0.7129685724091404,699.4373116963579,70
2025-05-18 12:55:24.865219,0.22954130819437918,-0.742855441134487,0.7460045404343687,700.1664676817023,71
2025-05-18 12:55:24.875220,0.26280147182731256,-0.745065437503077,0.7540273398392863,701.419105013219,71
2025-05-18 12:55:24.885221,0.26259762730097275,-0.7316722204156821,0.7134180735399853,732.8994811671845,71
2025-05-18 12:55:24.895223,0.2638114738168433,-0.6957524731591308,0.7086660911607724,729.9932303257975,71
2025-05-18 12:55:24.905224,0.24984322636121611,-0.714432252151478,0.7092768263705027,720.2266074083257,70
2025-05-18 12:55:24.915225,0.24992478711563218,-0.6793958107810482,0.7501398412281642,710.5717249287983,71
2025-05-18 12:55:24.925226,0.23344267273603214,-0.6741412991389831,0.7212278349393633,697.8070066869918,71
2025-05-18 12:55:24.935227,0.28641184766839406,-0.6894875856822754,0.7373247792496374,678.5897017530772,70
2025-05-18 12:55:24.945228,0.2640557231232376,-0.6754999400755383,0.734752932362869,668.60746719484,73
2025-05-18 12:55:24.955229,0.2615487590872028,-0.6591372696351561,0.695305610537455,649.5392083878279,71
2025-05-18 12:55:24.965231,0.3111137809591122,-0.689414479721958,0.7131024702266446,613.3037057539033,73
2025-05-18 12:55:24.975232,0.28064694541363805,-0.704398864412816,0.6910040617847836,633.731867064932,74
2025-05-18 12:55:24.985233,0.2734374566789454,-0.664737985674284,0.6952527499130063,611.4963577295647,71
2025-05-18 12:55:24.995234,0.3383937831477444,-0.6258345490199334,0.6581914533544693,580.1243768561203,73
2025-05-18 12:55:25.005235,0.29354954463812444,-0.6442001138240967,0.6974449568866365,582.6576782032654,73
2025-05-18 12:55:25.015236,0.31221411007009375,-0.6582007204803003,0.7054177528103011,542.3189868673682,71
2025-05-18 12:55:25.025237,0.3320745174054579,-0.6059238793895195,0.6818263815093742,544.7323619259132,72
2025-05-18 12:55:25.035238,0.29784683298690573,-0.6066897206889763,0.7138880781099238,516.8490189144657,74
2025-05-18 12:55:25.045239,0.33865035735014937,-0.6595460601095554,0.7171955388668126,533.3281714061396,71
2025-05-18 12:55:25.055240,0.31750793366136365,-0.6064549192304701,0.7014565299967904,505.1389864211725,72
2025-05-18 12:55:25.065242,0.2873431031070367,-0.6091667835171345,0.722639499929343,515.9676285467818,73
2025-05-18 12:55:25.075243,0.28822836368522514,-0.6318010271275695,0.692130300186244,506.04863174709504,73
2025-05-18 12:55:25.085244,0.30095764807468345,-0.5707490880911353,0.738986320702781,498.7904072333229,70
2025-05-18 12:55:25.095245,0.31815994253588054,-0.6048904150190357,0.7273286783569065,512.0645923241203,72
2025-05-18 12:55:25.105246,0.2916652729422331,-0.6209032893636215,0.7101930725788569,495.5712819893204,70
2025-05-18 12:55:25.115247,0.3104081378353207,-0.6384172201896612,0.7476911923246335,499.9110475671673,72
2025-05-18 12:55:25.125248,0.29969192361425295,-0.6230886259123589,0.7659629907784218,497.4471772530485,72
2025-05-18 12:55:25.135249,0.3185922135741816,-0.5916598451163678,0.767665470028824,496.99854231994317,73
2025-05-18 12:55:25.145250,0.2956922914474011,-0.6036872021115526,0.7665292715973092,502.3795261577072,72
2025-05-18 12:55:25.155251,0.27365707543274875,-0.6036000820769826,0.768364939099558,484.139562286982,73
2025-05-18 12:55:25.165253,0.27065828525658564,-0.6322085179459055,0.7734182323320533,491.0896967967469,71
2025-05-18 12:55:25.175254,0.2569873315398076,-0.6401639508796719,0.7807902402578708,441.35052437394836,72
2025-05-18 12:55:25.185255,0.2760659051970156,-0.5808978029526382,0.7780867871917201,442.5975669318038,70
2025-05-18 12:55:25.195256,0.26297425976112276,-0.6047757744538859,0.7976278027878785,432.938796676365,73
2025-05-18 12:55:25.205257,0.25519397174269703,-0.5930341156913512,0.7971365476529161,420.87154062410053,73
2025-05-18 12:55:25.215258,0.2489156840865299,-0.6180998616354585,0.77991383053492,432.1761815263245,74
2025-05-18 12:55:25.225259,0.27251714299416396,-0.6273362204908814,0.8679427681987726,387.2170917015425,74
2025-05-18 12:55:25.235260,0.2978898505171474,-0.5898769255411931,0.8019520471633181,392.0990002510886,73
2025-05-18 12:55:25.245261,0.26130557114623715,-0.5902281475962924,0.8475797137404476,352.76418966538785,74
2025-05-18 12:55:25.255262,0.26123040439148726,-0.6158545654398032,0.8420277956954161,315.5790271615096,70
2025-05-18 12:55:25.265264,0.21808608145783856,-0.6101731017360051,0.8718660691857424,318.9748886763693,72
2025-05-18 12:55:25.275265,0.23420631364227668,-0.6018795145245162,0.8457904748864331,328.4660992655545,73
2025-05-18 12:55:25.285266,0.1850987416423162,-0.6237534590912286,0.8800600658057709,314.2191489646742,74
2025-05-18 12:55:25.295267,0.18810467465736164,-0.6199788597233445,0.8778971034627562,283.4355861142245,71
2025-05-18 12:55:25.305268,0.19523237470781624,-0.6353814207950806,0.9166776101250445,312.05901953202874,72
2025-05-18 12:55:25.315269,0.1926655549445377,-0.6036010388700714,0.8700227407544325,305.74039296416913,72
2025-05-18 12:55:25.325270,0.1266510252016657,-0.6623202701254643,0.8917133363069208,296.0221562751603,71
2025-05-18 12:55:25.335271,0.1959903797320664,-0.6337454209234409,0.9313914915072771,302.365874474996,73
2025-05-18 12:55:25.345272,0.15994475915372758,-0.6236896325339844,0.9035799729050982,324.1533962478934,74
2025-05-18 12:55:25.355273,0.15766884909953965,-0.6683335898040009,0.9317244599397351,321.39425647830626,74
2025-05-18 12:55:25.365275,0.15343344642528625,-0.6593928586862715,0.9078914391710015,329.99423296187047,72
2025-05-18 12:55:25.375276,0.12376460146525672,-0.6731076628049955,0.9127600333969316,370.56843338330486,71
2025-05-18 12:55:25.385277,0.12110165883367469,-0.650767879836438,0.8902503197803486,382.8948210056323,73
2025-05-18 12:55:25.395278,0.14570445105845525,-0.6635384786297402,0.907662216761231,396.61851283359397,72
2025-05-18 12:55:25.405279,0.12540024374669353,-0.6638132354524099,0.9036592666599802,386.0986791010061,72
2025-05-18 12:55:25.415280,0.14912227828163027,-0.6806204829736904,0.8848521768434366,428.778759829169,71
2025-05-18 12:55:25.425281,0.08781378749134414,-0.7191481452631456,0.9324278373532069,431.2381815775825,71
2025-05-18 12:55:25.435282,0.09927444265283386,-0.6623847841025061,0.8939242323077004,435.8020963563333,74
2025-05-18 12:55:25.445283,0.103853476722389,-0.7029736990751322,0.852066985308208,477.10403115922526,70
2025-05-18 12:55:25.455284,0.07353525359171381,-0.6876532310989388,0.8860958320677429,488.83349154289033,74
2025-05-18 12:55:25.465286,0.09381541124489191,-0.6883326437258688,0.8754397080251685,481.0291980339513,72
2025-05-18 12:55:25.475287,0.052569677418745325,-0.7242270901271485,0.9011139159839974,462.719884200849,74
2025-05-18 12:55:25.485288,0.03433667334609429,-0.7319119007681194,0.8570542119954597,503.0391868774261,74
2025-05-18 12:55:25.495289,0.04205237038997513,-0.7098555975805143,0.8666885074235601,511.307341761847,71
2025-05-18 12:55:25.505290,0.03059439922055553,-0.7165796974039169,0.8363073267916518,459.11053530128737,70
2025-05-18 12:55:25.515291,0.018088190644646566,-0.7486138544354557,0.8693099568284871,518.1420669746221,73
2025-05-18 12:55:25.525292,0.005060168567529652,-0.7833404853152725,0.81692817051386,495.5710689610489,71
2025-05-18 12:55:25.535293,0.01909575514639828,-0.7733303240361052,0.807626744230923,508.5230875663344,74
2025-05-18 12:55:25.545294,0.05729448654184757,-0.7812615290918727,0.8170641054779899,480.8115340068028,73
2025-05-18 12:55:25.555296,-0.025267374029483453,-0.7807909527434668,0.8197821646883265,485.0685257626406,73
2025-05-18 12:55:25.565297,-0.033987842960171266,-0.7893657190149588,0.8100648202908604,495.35547453646683,74
2025-05-18 12:55:25.575298,-0.028311240194958846,-0.8023597272526011,0.8004109905021934,499.091134100482,71
2025-05-18 12:55:25.585299,-0.00294094286422919,-0.8270093647937163,0.7771470421992224,511.9054005715346,73
2025-05-18 12:55:25.595300,0.03496926045303162,-0.7787266928318999,0.7716090541335481,538.8380574217997,72
2025-05-18 12:55:25.605301,-0.060307800285590164,-0.8008663070799747,0.8001056347956154,549.511333371397,70
2025-05-18 12:55:25.615302,-0.04755499620883515,-0.8251187070485243,0.7685743745919346,565.4034201217879,70
2025-05-18 12:55:25.625303,-0.014341428409085633,-0.8172862550405202,0.7663631746158139,587.1563294217368,72
2025-05-18 12:55:25.635304,-0.07603351011137084,-0.8561198214830528,0.7547569520985195,586.1601630362597,70
2025-05-18 12:55:25.645306,-0.07244962444761352,-0.8606263207562354,0.7785165340615514,609.1504634622496,70
2025-05-18 12:55:25.655307,-0.046616366290430006,-0.8497095593045917,0.7530657648217626,639.292002921819,72
2025-05-18 12:55:25.665308,-0.0497114243489533,-0.8648486772061489,0.7017095136187956,663.1138830926338,70
2025-05-18 12:55:25.675309,-0.08064001466900286,-0.8827341295377228,0.7070239482098732,688.6256881565472,74
2025-05-18 12:55:25.685310,-0.04703322863679331,-0.8949910655604544,0.7346096593516961,676.8625590109792,72
2025-05-18 12:55:25.695311,-0.06341223291838592,-0.8931777463435204,0.7113534400616717,695.6785438418266,71
2025-05-18 12:55:25.705312,-0.09539915472919719,-0.8983517708682026,0.6894165228231416,703.2197729527755,74
2025-05-18 12:55:25.715313,-0.10792047297712809,-0.886382140480835,0.7169440149794897,710.3201667923697,72
2025-05-18 12:55:25.725314,-0.10714520502110833,-0.901812374483829,0.7371213698444373,712.1854011673402,71
2025-05-18 12:55:25.735316,-0.09341134824230905,-0.9460224099530019,0.7271768589898274,728.1432358089398,71
2025-05-18 12:55:25.745317,-0.07396680102840283,-0.9637393664933458,0.6929056460003798,706.884723146104,73
2025-05-18 12:55:25.755318,-0.09948915867002123,-0.9661096258075522,0.6851540444365332,718.5595791444425,71
2025-05-18 12:55:25.765319,-0.14267272799277314,-0.9808997936342292,0.7066853577221146,666.2398007551488,74
2025-05-18 12:55:25.775320,-0.11122497597235805,-0.9443767563304073,0.7173579764570575,665.8485169766502,74
2025-05-18 12:55:25.785321,-0.10072385955169533,-0.9771537909487547,0.6995051575418975,657.8135611839473,71
2025-05-18 12:55:25.795322,-0.09698275398605503,-1.0292895768559434,0.667535704364204,620.201200155187,74
2025-05-18 12:55:25.805323,-0.08733095453486962,-1.0170628166799596,0.6941658692790084,616.5004220915155,70
2025-05-18 12:55:25.815325,-0.10723943482977089,-1.0288258536128352,0.7157652733150192,610.4063872997056,74
2025-05-18 12:55:25.825326,-0.10484542931437739,-1.0480200886939435,0.7066255391750969,597.1915627387336,73
2025-05-18 12:55:25.835327,-0.13365785998039698,-1.0805101096008944,0.6768383945931747,584.577035498124,70
2025-05-18 12:55:25.845328,-0.06525472571239128,-1.034926503894039,0.7287936283407535,549.5442476898281,71
2025-05-18 12:55:25.855329,-0.0806997341460065,-1.0750924261353338,0.7188268025396217,558.4978192546657,73
2025-05-18 12:55:25.865330,-0.11391905038259857,-1.0692473297758025,0.6970453474131848,533.3539093265163,72
2025-05-18 12:55:25.875331,-0.12573919700558236,-1.052660968720188,0.7376851957181318,496.0946728255119,72
2025-05-18 12:55:25.885332,-0.07014733459392523,-1.1005501009265377,0.728741294168888,507.5004551657143,73
2025-05-18 12:55:25.895333,-0.07722989963301202,-1.0635642248961388,0.774676993580936,494.3885196361187,73
2025-05-18 12:55:25.905335,-0.07755701784199584,-1.0744199396535719,0.7205015690990779,513.4876210022181,73
2025-05-18 12:55:25.915336,-0.09441462654515217,-1.1089567078779368,0.7215963706788278,512.3579003757709,72
2025-05-18 12:55:25.925337,-0.06807597314887226,-1.0822612656506316,0.7359379352469512,505.3987398163497,71
2025-05-18 12:55:25.935338,-0.08736258082855256,-1.1068274368091653,0.7666660008535193,512.9380416668471,72
2025-05-18 12:55:25.945339,-0.06456105209041987,-1.064823983898084,0.7875703728561237,469.01672103150946,74
2025-05-18 12:55:25.955340,-0.052094352497430975,-1.1175606336443775,0.7706215323433058,493.81070445157127,73
2025-05-18 12:55:25.965341,-0.07256281249111818,-1.106208955763375,0.7836439888982014,507.39272727438185,70
2025-05-18 12:55:25.975343,-0.049721803871332355,-1.1378450231955357,0.8072886877764968,486.7184735910655,73
2025-05-18 12:55:25.985344,-0.020802181512647254,-1.1149275375586303,0.838128043063708,503.8964954953343,71
2025-05-18 12:55:25.995345,-0.06443103153109778,-1.1757576943884402,0.8067622501590636,485.7765143038367,71
2025-05-18 12:55:26.005346,-0.05406611395426672,-1.1832627059028629,0.8288402264232431,469.40040269436116,71
2025-05-18 12:55:26.015347,-0.042883584239100284,-1.1682073233778227,0.8254388785229052,445.7584141492998,74
2025-05-18 12:55:26.025348,-0.019608979198833348,-1.1917151161271604,0.8008665292074907,448.1404690604682,74
2025-05-18 12:55:26.035349,-0.006182340654979702,-1.1638413819705493,0.8756831179325909,423.57329347295916,72
2025-05-18 12:55:26.045351,-0.02931762643856872,-1.1552893269119509,0.831345661308211,433.75328405800076,70
2025-05-18 12:55:26.055352,0.017463291465322994,-1.170526282177892,0.8376301856254535,412.4941841811248,73
2025-05-18 12:55:26.065353,0.006540310881578007,-1.2071445377843568,0.8996385222656483,386.5483949154952,73
2025-05-18 12:55:26.075354,0.006951478363371759,-1.1987614616932092,0.8513398583360733,370.9629278049475,73
2025-05-18 12:55:26.085355,0.0008415311940004264,-1.1746274253919142,0.8883161898632342,359.4269326216754,73
2025-05-18 12:55:26.095356,0.052303230751904475,-1.2102644533467632,0.8848195670490506,339.3896612826129,73
2025-05-18 12:55:26.105357,0.027801020967135905,-1.151072707650508,0.8918945682793638,298.5679004395212,73
2025-05-18 12:55:26.115358,0.0844904278847476,-1.182386383766484,0.8565321826721362,323.59629939231127,72
2025-05-18 12:55:26.125359,0.0755279308194037,-1.1719728415577588,0.8665543820472236,306.46909302547255,70
2025-05-18 12:55:26.135361,0.03598180498393312,-1.19902224910366,0.8749742102704032,297.55404412241427,74
2025-05-18 12:55:26.145362,0.09989138022220745,-1.1970511814087672,0.9104698937509035,300.3656676812198,71
2025-05-18 12:55:26.155363,0.08784423192435707,-1.1650155651804905,0.9276752717390903,303.2363673720944,74
2025-05-18 12:55:26.165364,0.12314686891435747,-1.2051714187007505,0.9089039698926805,259.7356514064418,71
2025-05-18 12:55:26.175365,0.1005773629318939,-1.2195577614752626,0.9182524160669331,320.9463251235467,73
2025-05-18 12:55:26.185366,0.11483579945236533,-1.1966356068620407,0.8925927002711294,323.7697543230827,71
2025-05-18 12:55:26.195367,0.10614995850316496,-1.206330841408144,0.9193957728912836,332.7958343414778,72
2025-05-18 12:55:26.205368,0.09533862300972426,-1.1910304717316929,0.8736238997291588,346.27932926071634,70
2025-05-18 12:55:26.215369,0.14708532360079926,-1.2131214425904921,0.8940934337487845,384.6272548888745,70
2025-05-18 12:55:26.225371,0.10862814280902536,-1.2092747781587838,0.8889095701809991,389.6420434040663,73
2025-05-18 12:55:26.235372,0.1634791461741841,-1.2169658701405586,0.8907112031821331,421.3077835960701,72
2025-05-18 12:55:26.245373,0.1920161866879225,-1.1943730032998359,0.872070100196135,426.8479571847557,74
2025-05-18 12:55:26.255374,0.10281756332931388,-1.1544903995157474,0.8628336586290046,442.80997343254444,71
2025-05-18 12:55:26.265375,0.16527691900865737,-1.187346224972151,0.8725714710975961,460.3532600923305,70
2025-05-18 12:55:26.275376,0.15769509473198134,-1.1940276610969525,0.8693016218083082,460.68514193503944,71
2025-05-18 12:55:26.285377,0.17221791152235658,-1.1550511559687309,0.8794829935462964,465.21143399703783,70
2025-05-18 12:55:26.295378,0.1924465427273233,-1.163891985045608,0.8781964108984159,473.2620785101104,70
2025-05-18 12:55:26.305380,0.2057748345954392,-1.1593335568215146,0.855796815603126,483.81160691186165,71
2025-05-18 12:55:26.315381,0.21781298094947937,-1.173472442846404,0.8227826452738808,489.28809074738194,73
2025-05-18 12:55:26.325382,0.20708539744863957,-1.1766689536578832,0.8581073880221651,470.16876900881437,70
2025-05-18 12:55:26.335383,0.2461962054409505,-1.1826263821727476,0.845166436669692,496.46746048023596,73
2025-05-18 12:55:26.345384,0.24172955311988426,-1.1910795068349331,0.8272561153553745,520.1688817681884,72
2025-05-18 12:55:26.355385,0.23049289941040912,-1.1559815730208074,0.8546029212605689,504.6494082785617,74
2025-05-18 12:55:26.365386,0.21995423902730984,-1.1512955895359118,0.7850998266485885,498.57590884741774,71
2025-05-18 12:55:26.375387,0.21950149463885815,-1.1203336890767333,0.7859221209981282,483.40387331831664,74
2025-05-18 12:55:26.385388,0.26108874187960346,-1.1607928509834977,0.7875638452793415,499.1521887275492,74
2025-05-18 12:55:26.395389,0.235482639162136,-1.1215478195491375,0.8148396845646244,493.362538013267,72
2025-05-18 12:55:26.405391,0.2822494567252653,-1.1472137423973252,0.7735821952349634,527.4639736591187,70
2025-05-18 12:55:26.415392,0.30384449378285666,-1.1430767410914322,0.7876897733146166,511.7993347741967,72
2025-05-18 12:55:26.425393,0.2749129241031534,-1.0989357300843188,0.74730522952445,551.6980715180667,70
2025-05-18 12:55:26.435394,0.3034583409877962,-1.098996116698019,0.7479439043208388,530.4926844951265,70
2025-05-18 12:55:26.445395,0.26777663126853823,-1.06569449213661,0.7427255200124212,572.0153085730806,74
2025-05-18 12:55:26.455396,0.2654327300912305,-1.0863633617900517,0.7590347385054383,552.530009903247,72
2025-05-18 12:55:26.465397,0.3028710749681143,-1.0699053693541822,0.7308658941036968,567.4286989095815,74
2025-05-18 12:55:26.475399,0.25871502333223106,-1.1003004448093339,0.7624258683551882,579.7576804932745,71
2025-05-18 12:55:26.485400,0.2923544674587204,-1.096272219692457,0.7497020027536391,629.7410688743153,71
2025-05-18 12:55:26.495401,0.3050764040500639,-1.1098062172416308,0.7181750115964741,650.0882142051463,72
2025-05-18 12:55:26.505402,0.2724608031734696,-1.0711953818791549,0.7081427140849774,670.8653359635284,72
2025-05-18 12:55:26.515403,0.28923054552151134,-1.058312163772939,0.7189452323210435,667.6719754409601,71
2025-05-18 12:55:26.525404,0.33328451004795634,-1.0484318715427445,0.7195455240441416,692.6269479921289,72
2025-05-18 12:55:26.535405,0.2834718602699541,-1.054442723006742,0.7085162121067654,706.6957645993365,72
2025-05-18 12:55:26.545406,0.2928884999807018,-1.0404689443553918,0.7100342024830022,693.4639333377847,73
2025-05-18 12:55:26.555407,0.3310862728947909,-1.0216413936380078,0.7065740277258753,713.1977011679089,73
2025-05-18 12:55:26.565408,0.3113397765010449,-0.9982775302196134,0.6762139125598527,722.8621769724539,72
2025-05-18 12:55:26.575409,0.298355764656906,-1.0219569913007978,0.6961419791244374,697.2154912479599,74
2025-05-18 12:55:26.585411,0.297397414453042,-0.9677863753705657,0.6786153522114464,689.9506745479537,70
2025-05-18 12:55:26.595412,0.27604512933836994,-0.9584818530851443,0.7185369408324322,687.0703647433793,74
2025-05-18 12:55:26.605413,0.2960104001451936,-0.9967530321710619,0.7203170776586719,656.4069661057846,70
2025-05-18 12:55:26.615414,0.2977308183976881,-0.982526137172911,0.7193483777381734,660.677721895522,74
2025-05-18 12:55:26.625415,0.2837411791957027,-0.9573603205190603,0.7112053975435414,625.9401243337581,71
2025-05-18 12:55:26.635416,0.27455902196732346,-0.9496053215347706,0.7425650825322326,620.4701566660342,74
2025-05-18 12:55:26.645417,0.2879850256106004,-0.9237110687806315,0.695475420156976,615.4054886800839,72
2025-05-18 12:55:26.655418,0.25373606138399196,-0.8879465154779683,0.7131838087132152,618.6989607818921,73
2025-05-18 12:55:26.665419,0.2780738287065601,-0.9170048145555227,0.7515037080465803,566.3431581680834,71
2025-05-18 12:55:26.675420,0.28765118823933933,-0.8921204197774664,0.7238211687954664,563.4006479742983,74
2025-05-18 12:55:26.685422,0.29253854152723413,-0.9009259554285305,0.7251691177252452,530.6860933201267,73
2025-05-18 12:55:26.695423,0.2823588490809153,-0.8779563733283484,0.7382304856599193,536.6968503284162,74
2025-05-18 12:55:26.705424,0.2587211454895897,-0.890471263494686,0.7562274186545513,492.84980627449903,73
2025-05-18 12:55:26.715425,0.2744541258437895,-0.8583772822832033,0.7337959506997911,525.0662623938659,71
2025-05-18 12:55:26.725428,0.2591921362067531,-0.8787212953747705,0.7575361648561209,492.9198892195878,72
2025-05-18 12:55:26.735429,0.2631840684543321,-0.8536781706014402,0.7643426959614052,517.2618338624453,70
2025-05-18 12:55:26.745430,0.2440213551126016,-0.8520403712379965,0.7695120671607596,506.23124094804825,74
2025-05-18 12:55:26.755431,0.2517505784433003,-0.8399745359821412,0.7800640049903327,500.8154388001438,70
2025-05-18 12:55:26.765432,0.20077199054231126,-0.8339191398797641,0.8140728727669784,505.83167121361134,74
2025-05-18 12:55:26.775433,0.22778838650912647,-0.8067378374504532,0.7804998869130492,475.3377516536695,71
2025-05-18 12:55:26.785434,0.22425036566362955,-0.8307785502851097,0.8178369913402337,488.37466278987984,73
2025-05-18 12:55:26.795436,0.2443582850191577,-0.8016468850432849,0.8365705280605183,500.81616952505993,70
2025-05-18 12:55:26.805437,0.1953310961422825,-0.8078588044441589,0.781869364607461,511.8145805239504,73
2025-05-18 12:55:26.815438,0.21351364725548283,-0.8074191240417143,0.8265026377913307,486.28837486683284,70
2025-05-18 12:55:26.825439,0.20582233372596828,-0.7622561911671352,0.8266399576362702,509.03452656680946,72
2025-05-18 12:55:26.835440,0.19100707541390433,-0.7411902419497436,0.8139985120874594,461.94118873232765,74
2025-05-18 12:55:26.845441,0.16345976581598082,-0.7771783431838201,0.8366473449671473,463.66255961758554,71
2025-05-18 12:55:26.855442,0.1518714655765876,-0.7459431162015312,0.8424508559449617,441.0529492588007,71
2025-05-18 12:55:26.865444,0.16865467538092024,-0.7300079442126542,0.8544984647080662,433.5100470423885,70
2025-05-18 12:55:26.875445,0.18508981106273165,-0.745348636511549,0.8773784469518826,419.14250300449044,70
2025-05-18 12:55:26.885446,0.15623840575060882,-0.7317854138279651,0.8927753972274312,414.08097529731305,71
2025-05-18 12:55:26.895447,0.1556465882516811,-0.6936931255176749,0.8715458173509001,408.61466764014006,73
2025-05-18 12:55:26.905448,0.13461993673193506,-0.731013098797356,0.8805473685900808,369.5960962067065,70
2025-05-18 12:55:26.915449,0.14961278255247454,-0.7148292636959661,0.870224799881954,352.1423474418186,73
2025-05-18 12:55:26.925450,0.12159764710557458,-0.7278949177368835,0.9084777058906165,343.74194519604515,74
2025-05-18 12:55:26.935452,0.08713727159699501,-0.6791557104023762,0.9085074642595402,323.27448420052144,70
2025-05-18 12:55:26.945453,0.09843986094826457,-0.6891690853627008,0.885771604663751,313.5600152684324,74
2025-05-18 12:55:26.955454,0.06482204483408352,-0.670902464716923,0.8855611710484123,312.56956092697095,72
2025-05-18 12:55:26.965455,0.08187728016511897,-0.6090655053723484,0.9108607079991925,273.942523671177,73
2025-05-18 12:55:26.975456,0.04598152669571248,-0.6758597905638692,0.9113373872000482,292.88235167369106,72
2025-05-18 12:55:26.985457,0.04374831065568657,-0.6770475135361633,0.9089958077642535,318.7029674404755,70
2025-05-18 12:55:26.995458,0.0506462341909419,-0.6330113249502998,0.8615013757141079,297.51346215738363,74
2025-05-18 12:55:27.005459,0.03329367229202512,-0.6649479956641193,0.8917920872098375,286.85503664475516,71
2025-05-18 12:55:27.015460,0.03832383503513959,-0.6871691492849382,0.9068203956379771,289.68578594049137,72
2025-05-18 12:55:27.025462,0.020959245172683803,-0.6228101673590491,0.8921419539754567,346.82869047468444,72
2025-05-18 12:55:27.035463,0.004811542861851578,-0.6193654670557243,0.8948855154478389,367.0655269651988,70
2025-05-18 12:55:27.045464,-0.013686689457828517,-0.6151376613912232,0.9091061491400131,342.7894071019131,73
2025-05-18 12:55:27.055465,-0.0037390645366861723,-0.6551869240770056,0.8600590729146648,351.13052129463716,71
2025-05-18 12:55:27.065466,-0.006019591173896853,-0.6177316774164943,0.8687138835608034,364.134830048975,72
2025-05-18 12:55:27.075467,-0.001443047555540769,-0.6180843679826366,0.9069349202856994,428.5622746725965,70
2025-05-18 12:55:27.085468,-0.012339061731275474,-0.6439364835068665,0.8533650472125041,441.9350495261562,71
2025-05-18 12:55:27.095469,-0.04635212960989553,-0.6194618222605562,0.8659093236251388,462.333816330667,72
2025-05-18 12:55:27.105470,-0.027481397812736393,-0.6105983979776181,0.8631945206210093,476.02883069808865,70
2025-05-18 12:55:27.115471,-0.0268375770160154,-0.6016631709613713,0.8284923718885381,471.9060034526844,74
2025-05-18 12:55:27.125473,-0.027138230508279446,-0.5807163193784398,0.8325386326260648,464.91886752186787,70
2025-05-18 12:55:27.135474,-0.026393076791090833,-0.6267745442333663,0.8293550760307458,484.21392358981166,72
2025-05-18 12:55:27.145475,-0.06534809839602566,-0.6310141611233311,0.8312122043940663,467.68587136898554,72
2025-05-18 12:55:27.155476,-0.10468398504616908,-0.6383311148381726,0.8272241433880274,501.51815852231476,73
2025-05-18 12:55:27.165477,-0.05716024720349265,-0.5854699735235913,0.8544529567184896,508.74768982082696,72
2025-05-18 12:55:27.175478,-0.045529008024192824,-0.5525351165833875,0.7976426707215678,490.365274364019,72
2025-05-18 12:55:27.185479,-0.06778452532048189,-0.6027155127224856,0.7914121571310726,497.00926372824284,71
2025-05-18 12:55:27.195480,-0.09030647484423643,-0.6015343422492958,0.7829291898771764,491.71367907833235,71
2025-05-18 12:55:27.205482,-0.07047149776216496,-0.5649611999919067,0.8052065248774671,470.35359376120743,71
2025-05-18 12:55:27.215483,-0.11520751229156068,-0.6090630626077356,0.7813536383044732,486.5257998528162,72
2025-05-18 12:55:27.225484,-0.08277789990226431,-0.6020098184363912,0.7134646560772389,505.1703559040946,72
2025-05-18 12:55:27.235485,-0.10087559237136103,-0.623088664139162,0.7463583933004474,502.2016185797934,72
2025-05-18 12:55:27.245486,-0.11239926664685461,-0.5892081712271752,0.7621496472595513,497.2651058014411,71
2025-05-18 12:55:27.255487,-0.08273935990719136,-0.5850797643218169,0.7709349955555846,528.916659647758,73
2025-05-18 12:55:27.265488,-0.0832536052904154,-0.6337253625588543,0.7471740750376668,560.8582142065302,71
2025-05-18 12:55:27.275489,-0.11636893249501674,-0.6170509599235664,0.7205928141848031,554.9561352756217,74
2025-05-18 12:55:27.285490,-0.09564098528112754,-0.6195157402808823,0.7581124371488213,560.7064642942278,72
2025-05-18 12:55:27.295491,-0.10479943416230474,-0.6232896460605487,0.6720591357802848,567.6632752004182,70
2025-05-18 12:55:27.305493,-0.10681357305146968,-0.5753419613046011,0.7327510430343733,596.0667429338287,73
2025-05-18 12:55:27.315494,-0.1058410911944121,-0.5938472053013133,0.7095332559182387,636.8574357797145,72
2025-05-18 12:55:27.325495,-0.08746051377609398,-0.6197655414907621,0.7279990922166615,642.529245143432,71
2025-05-18 12:55:27.335496,-0.10603661512519723,-0.6479795113167979,0.719118696420526,673.142785115098,74
2025-05-18 12:55:27.345497,-0.06803933211142368,-0.6293088472862993,0.6852415313963798,670.9254748797179,74
2025-05-18 12:55:27.355498,-0.05406594615428547,-0.6606801873163292,0.6730467968847832,662.3103029162717,72
2025-05-18 12:55:27.365499,-0.09252979198614932,-0.6524777603671641,0.6802477413114709,704.9618331817574,74
2025-05-18 12:55:27.375501,-0.09334788205356423,-0.6630620390150692,0.7266915289821037,691.0155672287706,73
2025-05-18 12:55:27.385502,-0.10643170556373734,-0.6292154875138717,0.671203161901938,719.1444383488987,71
2025-05-18 12:55:27.395503,-0.08048902393828064,-0.6956454889507325,0.7142635260033446,690.332195506117,71
2025-05-18 12:55:27.405504,-0.0799281190203002,-0.6745323504973371,0.700220324198504,694.3970413467491,71
2025-05-18 12:55:27.415505,-0.08728811725068582,-0.64414964979413,0.7032191327798492,693.7680984327601,73
2025-05-18 12:55:27.425506,-0.09326709316424178,-0.6916346927781468,0.7135502396270752,697.5058998198177,74
2025-05-18 12:55:27.435507,-0.057785985565962844,-0.6770995284389217,0.6977654632418533,670.826521519885,73
2025-05-18 12:55:27.445508,-0.12495758238082147,-0.6707701386281032,0.710166783983897,679.6026445366994,72
2025-05-18 12:55:27.455510,-0.07999375503059294,-0.7234544538191756,0.671834603668336,659.0519892730748,73
2025-05-18 12:55:27.465511,-0.0741625270684581,-0.7169840619254333,0.720411995768232,639.8910932448731,74
2025-05-18 12:55:27.475512,-0.08226717762768186,-0.6919468149753613,0.7096167916248419,618.3898980794825,72
2025-05-18 12:55:27.485513,-0.05713630877626625,-0.7099442818345679,0.723458421199964,560.9102810136326,71
2025-05-18 12:55:27.495514,-0.06516112513835152,-0.7297182958305846,0.7344138962556777,564.8876650163633,72
2025-05-18 12:55:27.505515,-0.05916961814703474,-0.8034885287063218,0.7293718964671124,561.1396056084334,71
2025-05-18 12:55:27.515516,-0.03229428809383617,-0.744379917571589,0.7835218946455885,569.5208103034697,70
2025-05-18 12:55:27.525517,-0.035607966786807436,-0.7285367112786151,0.7247127559374515,539.8549359380564,72
2025-05-18 12:55:27.535518,-0.03336027436472287,-0.7967926076360066,0.7831357374878474,552.2746015347301,71
2025-05-18 12:55:27.545519,-0.006497736036671146,-0.769612677622215,0.7828567667085633,526.5199092801676,72
2025-05-18 12:55:27.555521,0.008194625035676511,-0.7934690631065275,0.7812270131143331,497.2006392636396,74
2025-05-18 12:55:27.565522,0.011172798054513766,-0.7623281003483839,0.824197994323481,490.0717858006086,74
2025-05-18 12:55:27.575523,0.015172226711994039,-0.8010379066164677,0.7691260072216383,487.7135047495187,70
2025-05-18 12:55:27.585524,0.030464808026665537,-0.7914906930701017,0.7962316602496673,522.7611792512597,71
2025-05-18 12:55:27.595525,0.030988553325286654,-0.8064939155121903,0.8180413570872964,502.2847207447835,70
2025-05-18 12:55:27.605526,0.05278863756033125,-0.8391851491487942,0.7812385138180439,515.1255215162925,73
2025-05-18 12:55:27.615527,0.025455175957784747,-0.848635443020044,0.8110013642777452,500.5449644689795,70
2025-05-18 12:55:27.625528,0.047825456019110285,-0.8310296336624093,0.8579714221937383,524.8224809801474,71
2025-05-18 12:55:27.635530,0.05390345577082563,-0.8135383889086286,0.8503502842347788,506.329398064993,72
2025-05-18 12:55:27.645531,0.03882001054445672,-0.8605786885829897,0.8675379219265236,490.21357263663236,70
2025-05-18 12:55:27.655532,0.03418523967944083,-0.8674532238464492,0.829990161821435,493.3618073092379,70
2025-05-18 12:55:27.665533,0.09739658268152979,-0.8854027404015222,0.8369736850426232,492.90915165754905,74
2025-05-18 12:55:27.675534,0.05530944724169968,-0.8610801918767615,0.8444212808067162,493.0116619276242,73
2025-05-18 12:55:27.685535,0.08866125685524748,-0.8985672821977527,0.8741795033651796,460.9015484774728,71
2025-05-18 12:55:27.695536,0.11451349746449971,-0.9176436297558933,0.8608768099843653,446.3399088340995,71
2025-05-18 12:55:27.705537,0.10393780135278688,-0.9495840311696121,0.8819039179836289,427.831430877004,72
2025-05-18 12:55:27.715538,0.12964282803487873,-0.9307794865557916,0.8875442141851642,414.7718472931236,70
2025-05-18 12:55:27.725539,0.14221683273928992,-0.9644596015087785,0.8502328526911377,371.0917904711619,74
2025-05-18 12:55:27.735541,0.15519303228178044,-0.9454365223776257,0.916989172968211,364.27193927425844,72
2025-05-18 12:55:27.745542,0.13605437311852606,-0.9411237099531433,0.8876415823962865,363.7836046163214,72
2025-05-18 12:55:27.755543,0.12523044338685618,-0.9763731162253062,0.8635648835939816,326.97699492558326,71
2025-05-18 12:55:27.765544,0.15780154443101235,-0.9686828958307361,0.9269398912259602,306.8748712239508,71
2025-05-18 12:55:27.775545,0.1711872394737457,-1.0081629788722606,0.8761787663377744,294.7604934106206,71
2025-05-18 12:55:27.785546,0.16324458592036734,-0.9853107265060976,0.8938963881342641,294.07938098965394,72
2025-05-18 12:55:27.795547,0.19972620090218002,-0.9941803087933856,0.8573034503738585,298.9126878734479,71
2025-05-18 12:55:27.805548,0.22381516275554156,-0.9949852367697062,0.8787842354670387,288.53477555534,72
2025-05-18 12:55:27.815550,0.18178853846732368,-1.0094625977943377,0.9198338421279112,280.22973113480236,71
2025-05-18 12:55:27.825551,0.22440782898308484,-1.0560763758454377,0.9003324882791481,280.52723126700386,73
2025-05-18 12:55:27.835552,0.2195799155214275,-1.052577431592407,0.8955865430678885,312.87412903314834,71
2025-05-18 12:55:27.845553,0.2443432070126247,-0.9702189520271398,0.8763295667617108,295.8476226331396,73
2025-05-18 12:55:27.855554,0.2525884493593322,-1.0667664224114333,0.9079368800316221,324.72085231439314,74
2025-05-18 12:55:27.865555,0.25077173926313634,-1.0371596094442241,0.8613622755787459,326.66187399227334,72
2025-05-18 12:55:27.875556,0.2567986908595715,-1.08476360010392,0.8944884752671324,357.8431811400762,72
2025-05-18 12:55:27.885557,0.2449293851243755,-1.0703217835155405,0.9010704987772328,390.9788433512618,72
2025-05-18 12:55:27.895558,0.2831974138498259,-1.086666702187877,0.8862016893751853,381.4162087123863,72
2025-05-18 12:55:27.905559,0.31123845427546964,-1.0732005940542646,0.8572935901209061,414.1634431437234,71
2025-05-18 12:55:27.915561,0.23855174738752496,-1.1067788613651122,0.8780690400354751,459.364790628307,72
2025-05-18 12:55:27.925562,0.2635467852862892,-1.1027793993297743,0.8375957883278319,450.6162936583667,74
2025-05-18 12:55:27.935563,0.27088532541801646,-1.100443622375583,0.8219003725146986,449.7836006714075,72
2025-05-18 12:55:27.945564,0.27814062105974857,-1.0999349707403079,0.8680828333296979,479.69648935361204,71
2025-05-18 12:55:27.955565,0.27790954358441816,-1.158103445344982,0.8253879469077102,478.329885771855,73
2025-05-18 12:55:27.965566,0.25514093176738084,-1.1173160541742309,0.8231181353961176,493.324925177994,73
2025-05-18 12:55:27.975567,0.3024507792593348,-1.1066670461052546,0.8097012659331713,480.69259131984643,71
2025-05-18 12:55:27.985568,0.3079717588453723,-1.1743968881288196,0.7779138584232794,481.62478261457255,70
2025-05-18 12:55:27.995569,0.31044644495199875,-1.166671675447678,0.7925556017424701,516.6505614382588,71
2025-05-18 12:55:28.005570,0.32301443380744305,-1.139688366092622,0.8235653788472979,514.3356599578653,70
2025-05-18 12:55:28.015572,0.2855656670301923,-1.1308908948016207,0.8288930208860058,502.5134879663145,72
2025-05-18 12:55:28.025573,0.31968798152715844,-1.143725932873625,0.786071964245872,479.75398299642234,70
2025-05-18 12:55:28.035574,0.28138543582087894,-1.1742416156312676,0.7541788529938735,483.55969414445633,73
2025-05-18 12:55:28.045575,0.33055877272415546,-1.1656599713577263,0.7604231911275414,470.24114091954414,74
2025-05-18 12:55:28.055576,0.35564686169733384,-1.2002411842297163,0.7539560771518127,514.9027744817987,70
2025-05-18 12:55:28.065577,0.28600787711943243,-1.1587295910595505,0.7346977661113696,516.1819331693644,74
2025-05-18 12:55:28.075578,0.3311010696830598,-1.1511796322164731,0.7863869158684371,527.4796065956604,74
2025-05-18 12:55:28.085579,0.28765872187880975,-1.2134008262114955,0.7633197553786378,495.56208029586213,74
2025-05-18 12:55:28.095581,0.3050769151341841,-1.1536215215506318,0.706854790934442,523.2807116586132,70
2025-05-18 12:55:28.105582,0.28163766366768495,-1.2001702707150705,0.6940531169800281,536.4605672822767,70
2025-05-18 12:55:28.115583,0.30690916108042654,-1.2212910474248722,0.7190381788732914,569.9700548581781,70
2025-05-18 12:55:28.125584,0.3082863111427951,-1.1795474144271088,0.7253899903975185,569.9004924747032,70
2025-05-18 12:55:28.135585,0.2906989196676346,-1.1721438721598512,0.7503511803056856,605.3135137990413,72
2025-05-18 12:55:28.145586,0.28049468832444596,-1.1995314060081093,0.6894919707340289,601.0761101759964,71
2025-05-18 12:55:28.155587,0.27727914343721155,-1.170574186681359,0.7044706481069289,641.7851378694176,71
2025-05-18 12:55:28.165588,0.26271627885161297,-1.1935827186243524,0.6557329348929781,649.2936391255282,71
2025-05-18 12:55:28.175590,0.293465129481302,-1.209263368558736,0.6598428574060985,656.348172904412,74
2025-05-18 12:55:28.185591,0.246600965229278,-1.2147977500925198,0.711198151818369,692.984931890218,71
2025-05-18 12:55:28.195595,0.27798467210960076,-1.2129686268702031,0.6710759933342615,696.22681443152,70
2025-05-18 12:55:28.205596,0.23567984678629023,-1.202194947883727,0.701575097328681,700.5160789308904,74
2025-05-18 12:55:28.215597,0.2637400935264005,-1.1995116131403194,0.7065690368671748,706.805591946701,73
2025-05-18 12:55:28.225598,0.2620682141857394,-1.210530676189053,0.6991542370016819,728.2713158559303,72
2025-05-18 12:55:28.235599,0.22721181655061498,-1.214381158083947,0.7175366669647365,708.2917295668441,72
2025-05-18 12:55:28.245600,0.2592807621549084,-1.1936554928701315,0.743033785039007,678.8921275428901,74
2025-05-18 12:55:28.255601,0.24486085034468294,-1.2055068657794763,0.6979345579575532,702.8321637979294,73
2025-05-18 12:55:28.265602,0.23804898385071235,-1.2015066744273843,0.703062765910738,674.8931592567538,73
2025-05-18 12:55:28.275603,0.22984411470369157,-1.1780933619771417,0.7184727617482576,679.2371550860319,72
2025-05-18 12:55:28.285605,0.17469884658389223,-1.1646019140598112,0.7048175634420768,652.1432249473826,73
2025-05-18 12:55:28.295606,0.18157778982216913,-1.1937290217072358,0.7501320442690306,655.164375947504,70
2025-05-18 12:55:28.305607,0.20719333783159385,-1.1685450289154407,0.7429592576600945,650.0216971043103,73
2025-05-18 12:55:28.315608,0.21344513253116307,-1.1812044707510536,0.7532357316517241,625.0167040775723,73
2025-05-18 12:55:28.325609,0.21141623038384863,-1.165002548496819,0.772876187228163,583.2905140013668,72
2025-05-18 12:55:28.335610,0.20845219820105076,-1.1440227711230226,0.7559750849365787,608.3022484808707,74
2025-05-18 12:55:28.345611,0.18081159285969625,-1.1753968600926903,0.810561389493221,560.5122861330076,73
2025-05-18 12:55:28.355612,0.20387161754822852,-1.1371185390344907,0.7902696358728393,538.145766532387,72
2025-05-18 12:55:28.365613,0.1714107964551296,-1.1471432008343698,0.7859936266161334,524.2675475682393,71
2025-05-18 12:55:28.375614,0.12781876514589255,-1.1455095612845614,0.7953726582975329,515.9992560495165,71
2025-05-18 12:55:28.385616,0.14255176360889316,-1.165147514243947,0.7779651297684729,491.60328797007935,70
